FileType=PCF
NHL=14
Date=08/29/17	09:49:30
Facility=APL
Serial=16328-13
Customer=NASA
NP=6
Mach=0.050000
Calibration=1:1
CalPts=490
TstPts=95
PortNumbering=AP Standard
Units=Torr C m/s kg/m^3 deg mm 
Theta[deg]	Phi[deg]	P1[Torr]	P2[Torr]	P3[Torr]	P4[Torr]	P5[Torr]	P6[Torr]	Pt[Torr]	Ps[Abs,Torr]	Ts[C]	
  0.000	  0.000	  1.29890	  0.69266	  0.67285	  0.68306	  0.69569	  0.00841	  1.29026	705.39502	 23.80	
  1.691	128.401	  1.29556	  0.65461	  0.70714	  0.71410	  0.65925	  0.00808	  1.28674	705.59802	 23.80	
  1.692	 77.194	  1.29509	  0.70360	  0.65388	  0.72761	  0.64305	  0.00744	  1.28683	705.35699	 23.80	
  1.699	 26.182	  1.29157	  0.74360	  0.61377	  0.69108	  0.67058	  0.00688	  1.28325	705.48199	 23.80	
  1.699	-26.182	  1.29537	  0.74351	  0.61898	  0.64043	  0.72398	  0.00708	  1.28559	705.48297	 23.80	
  1.692	-77.194	  1.29717	  0.70300	  0.65391	  0.61546	  0.75783	  0.00768	  1.28799	705.53601	 23.80	
  1.691	-128.401	  1.29668	  0.65476	  0.70477	  0.62380	  0.74586	  0.00708	  1.28833	705.32202	 23.80	
  1.700	180.000	  1.30159	  0.63868	  0.73235	  0.67091	  0.69859	  0.00791	  1.29211	705.34698	 23.80	
  3.400	180.000	  1.29765	  0.56792	  0.79682	  0.66359	  0.69367	  0.00590	  1.29096	705.28601	 23.80	
  3.388	-152.325	  1.29887	  0.58035	  0.78171	  0.60768	  0.75463	  0.00526	  1.29252	705.36700	 23.80	
  3.397	-124.529	  1.30077	  0.61751	  0.73936	  0.56642	  0.80332	  0.00440	  1.29447	705.34802	 23.80	
  3.399	-96.763	  1.29460	  0.66870	  0.67704	  0.54474	  0.82223	  0.00362	  1.28900	705.30200	 23.80	
  3.394	-69.283	  1.29723	  0.73075	  0.62006	  0.55290	  0.81591	  0.00341	  1.29156	705.28601	 23.80	
  3.400	-41.398	  1.29172	  0.78006	  0.57043	  0.58141	  0.77589	  0.00403	  1.28642	705.35901	 23.80	
  3.401	-14.021	  1.29420	  0.81224	  0.54565	  0.63026	  0.72287	  0.00340	  1.28868	705.37799	 23.80	
  3.401	 14.021	  1.29253	  0.81282	  0.54331	  0.69064	  0.65999	  0.00391	  1.28607	705.33301	 23.80	
  3.400	 41.398	  1.28874	  0.78260	  0.56658	  0.74462	  0.60711	  0.00459	  1.28211	705.37799	 23.80	
  3.394	 69.283	  1.28538	  0.72747	  0.61255	  0.77897	  0.57374	  0.00425	  1.27890	705.41302	 23.80	
  3.399	 96.763	  1.28997	  0.66952	  0.67449	  0.78954	  0.57106	  0.00389	  1.28214	705.37097	 23.80	
  3.397	124.529	  1.29427	  0.61772	  0.73544	  0.76922	  0.59269	  0.00406	  1.28703	705.29498	 23.80	
  3.388	152.325	  1.29733	  0.58338	  0.78021	  0.72364	  0.63509	  0.00496	  1.28989	705.41602	 23.80	
  5.099	161.165	  1.29041	  0.50648	  0.84680	  0.71928	  0.62110	  0.00134	  1.28830	705.54999	 23.80	
  5.109	142.013	  1.29553	  0.53789	  0.81722	  0.78090	  0.57019	  0.00058	  1.29271	705.38098	 23.80	
  5.095	123.033	  1.29509	  0.58118	  0.76598	  0.82589	  0.53165	 -0.00050	  1.29191	705.39600	 23.80	
  5.105	104.191	  1.28770	  0.63234	  0.70083	  0.84814	  0.50542	 -0.00121	  1.28366	705.44702	 23.80	
  5.093	 85.207	  1.29948	  0.70258	  0.64109	  0.86185	  0.50402	 -0.00132	  1.29722	705.38202	 23.80	
  5.104	 66.290	  1.28554	  0.75809	  0.57377	  0.83604	  0.51136	 -0.00161	  1.28382	705.48499	 23.80	
  5.094	 47.331	  1.28770	  0.81454	  0.52378	  0.79900	  0.54358	 -0.00174	  1.28528	705.50500	 23.80	
  5.089	 28.397	  1.29323	  0.85830	  0.49086	  0.74949	  0.59331	 -0.00212	  1.29195	705.53601	 23.80	
  5.096	  9.576	  1.28978	  0.87814	  0.47104	  0.68544	  0.65067	 -0.00136	  1.28991	705.43298	 23.80	
  5.096	 -9.576	  1.28301	  0.87197	  0.46945	  0.61717	  0.71219	 -0.00195	  1.28319	705.49597	 23.80	
  5.089	-28.397	  1.27952	  0.84657	  0.48869	  0.55969	  0.77109	 -0.00159	  1.28054	705.33301	 23.80	
  5.094	-47.331	  1.28219	  0.80598	  0.52506	  0.51399	  0.82595	 -0.00266	  1.28421	705.36700	 23.80	
  5.104	-66.290	  1.27883	  0.74791	  0.57294	  0.48097	  0.86085	 -0.00391	  1.27975	705.34802	 23.80	
  5.093	-85.207	  1.27497	  0.68366	  0.63097	  0.46572	  0.87543	 -0.00383	  1.27687	705.47498	 23.80	
  5.105	-104.191	  1.27721	  0.62180	  0.69743	  0.47104	  0.87099	 -0.00436	  1.27953	705.37000	 23.80	
  5.095	-123.033	  1.27705	  0.56744	  0.75699	  0.49467	  0.84339	 -0.00205	  1.27737	705.34198	 23.80	
  5.109	-142.013	  1.27841	  0.52455	  0.80781	  0.53398	  0.79859	 -0.00009	  1.27789	705.44000	 23.80	
  5.099	-161.165	  1.28753	  0.50226	  0.84601	  0.59175	  0.74470	  0.00140	  1.28530	705.41199	 23.80	
  5.100	180.000	  1.28934	  0.49570	  0.85759	  0.65339	  0.68187	  0.00220	  1.28658	705.40399	 23.80	
  6.800	180.000	  1.27936	  0.42078	  0.91780	  0.64180	  0.67020	 -0.00416	  1.28686	705.34003	 23.80	
  6.796	-166.229	  1.28057	  0.42650	  0.91173	  0.58201	  0.73384	 -0.00474	  1.28957	705.35602	 23.80	
  6.808	-152.311	  1.27734	  0.44345	  0.88507	  0.52360	  0.79304	 -0.00566	  1.28742	705.27698	 23.80	
  6.795	-138.383	  1.27933	  0.47632	  0.84886	  0.47498	  0.85089	 -0.00647	  1.28935	705.32202	 23.80	
  6.792	-124.591	  1.27792	  0.51857	  0.79679	  0.43628	  0.89448	 -0.00882	  1.29000	705.38202	 23.80	
  6.787	-110.754	  1.26876	  0.56652	  0.73336	  0.40760	  0.91951	 -0.01085	  1.28103	705.33099	 23.80	
  6.800	-96.985	  1.26789	  0.62530	  0.67102	  0.39428	  0.93494	 -0.01174	  1.28081	705.49200	 23.80	
  6.800	-83.015	  1.26602	  0.68818	  0.60604	  0.39381	  0.93344	 -0.01161	  1.27963	705.46100	 23.80	
  6.787	-69.246	  1.27282	  0.75326	  0.54996	  0.40908	  0.92199	 -0.01193	  1.28640	705.44897	 23.80	
  6.792	-55.409	  1.27361	  0.81229	  0.49798	  0.43538	  0.89175	 -0.01059	  1.28836	705.40198	 23.80	
  6.795	-41.617	  1.27550	  0.86415	  0.45483	  0.47398	  0.84838	 -0.00953	  1.28944	705.45697	 23.80	
  6.808	-27.689	  1.27068	  0.90040	  0.41976	  0.52025	  0.79031	 -0.00897	  1.28412	705.44299	 23.80	
  6.796	-13.771	  1.26956	  0.92433	  0.39894	  0.57590	  0.72850	 -0.00717	  1.28256	705.50800	 23.80	
  6.800	  0.000	  1.27012	  0.93434	  0.39163	  0.63649	  0.66633	 -0.00880	  1.28172	705.41199	 23.80	
  6.796	 13.771	  1.26775	  0.92504	  0.39715	  0.69768	  0.60340	 -0.00732	  1.27745	705.47198	 23.80	
  6.808	 27.689	  1.27342	  0.90611	  0.41761	  0.76155	  0.54839	 -0.00715	  1.28362	705.53101	 23.80	
  6.795	 41.617	  1.28427	  0.87482	  0.45439	  0.82280	  0.50396	 -0.00790	  1.29306	705.43201	 23.80	
  6.792	 55.409	  1.28474	  0.82564	  0.49831	  0.86770	  0.46645	 -0.00849	  1.29228	705.45697	 23.80	
  6.787	 69.246	  1.27372	  0.76112	  0.54709	  0.89228	  0.43589	 -0.00852	  1.28097	705.49103	 23.80	
  6.800	 83.015	  1.27472	  0.70012	  0.60628	  0.90949	  0.42364	 -0.00887	  1.28119	705.39301	 23.80	
  6.800	 96.985	  1.27469	  0.63629	  0.66984	  0.90893	  0.42376	 -0.00964	  1.27987	705.52802	 23.80	
  6.787	110.754	  1.27943	  0.57970	  0.73541	  0.89644	  0.43967	 -0.00800	  1.28476	705.50598	 23.80	
  6.792	124.591	  1.27467	  0.52618	  0.79134	  0.86151	  0.46476	 -0.00702	  1.28025	705.45203	 23.80	
  6.795	138.383	  1.26960	  0.48143	  0.83853	  0.81469	  0.50032	 -0.00660	  1.27514	705.44702	 23.80	
  6.808	152.311	  1.27556	  0.44946	  0.88207	  0.76424	  0.54949	 -0.00454	  1.28180	705.50299	 23.80	
  6.796	166.229	  1.27219	  0.42768	  0.90386	  0.70192	  0.60415	 -0.00358	  1.27833	705.47998	 23.80	
  8.491	168.704	  1.26115	  0.35214	  0.96285	  0.69075	  0.58820	 -0.01130	  1.28190	705.45099	 23.80	
  8.502	157.493	  1.26144	  0.36963	  0.94262	  0.75347	  0.53030	 -0.01093	  1.28143	705.33398	 23.80	
  8.494	146.194	  1.25858	  0.39700	  0.90766	  0.81119	  0.47633	 -0.01283	  1.27838	705.39801	 23.80	
  8.495	135.039	  1.26168	  0.43478	  0.86589	  0.86531	  0.43270	 -0.01471	  1.28129	705.40399	 23.80	
  8.487	123.723	  1.26385	  0.48105	  0.81312	  0.90990	  0.39599	 -0.01592	  1.28306	705.49902	 23.80	
  8.492	112.575	  1.27022	  0.53631	  0.75758	  0.94681	  0.37191	 -0.01628	  1.29026	705.27698	 23.80	
  8.510	101.220	  1.26112	  0.59164	  0.68826	  0.96107	  0.35173	 -0.01822	  1.28020	705.29199	 23.80	
  8.500	 90.000	  1.25631	  0.65183	  0.62078	  0.96317	  0.34553	 -0.01821	  1.27558	705.35602	 23.80	
  8.510	 78.780	  1.25839	  0.71701	  0.55821	  0.95876	  0.35039	 -0.01712	  1.27880	705.42902	 23.80	
  8.492	 67.425	  1.26071	  0.78218	  0.49969	  0.93986	  0.36670	 -0.01706	  1.28221	705.47198	 23.80	
  8.487	 56.277	  1.25536	  0.83664	  0.44559	  0.90387	  0.39092	 -0.01813	  1.27813	705.38501	 23.80	
  8.495	 44.961	  1.25861	  0.89224	  0.39978	  0.86229	  0.42841	 -0.01853	  1.28172	705.39600	 23.80	
  8.494	 33.806	  1.25353	  0.93031	  0.36201	  0.80649	  0.47286	 -0.01650	  1.27780	705.32501	 23.80	
  8.502	 22.507	  1.24975	  0.96046	  0.33369	  0.74595	  0.52404	 -0.01571	  1.27556	705.36700	 23.80	
  8.491	 11.296	  1.25025	  0.97802	  0.32013	  0.68348	  0.58323	 -0.01588	  1.27721	705.35400	 23.80	
  8.500	  0.000	  1.24852	  0.98394	  0.31444	  0.61849	  0.64621	 -0.01633	  1.27509	705.28497	 23.80	
  8.491	-11.296	  1.24913	  0.97636	  0.32036	  0.55584	  0.71115	 -0.01583	  1.27719	705.32501	 23.80	
  8.502	-22.507	  1.24758	  0.95564	  0.33659	  0.49741	  0.77341	 -0.01552	  1.27669	705.51599	 23.80	
  8.494	-33.806	  1.24959	  0.92313	  0.36454	  0.44515	  0.83378	 -0.01812	  1.27871	705.40601	 23.80	
  8.495	-44.961	  1.25173	  0.88084	  0.40208	  0.40024	  0.88866	 -0.02086	  1.28199	705.44000	 23.80	
  8.487	-56.277	  1.24721	  0.82399	  0.44738	  0.36421	  0.92744	 -0.02000	  1.27835	705.37903	 23.80	
  8.492	-67.425	  1.24936	  0.76725	  0.50040	  0.33773	  0.96089	 -0.02085	  1.28009	705.40198	 23.80	
  8.510	-78.780	  1.24912	  0.70391	  0.55964	  0.32067	  0.98204	 -0.02068	  1.27974	705.27698	 23.80	
  8.500	-90.000	  1.24702	  0.63825	  0.62231	  0.31565	  0.98603	 -0.02209	  1.27677	705.30603	 23.80	
  8.510	-101.220	  1.25088	  0.57726	  0.68841	  0.32095	  0.98302	 -0.02088	  1.28016	705.37299	 23.80	
  8.492	-112.575	  1.25780	  0.52120	  0.75641	  0.33988	  0.96700	 -0.01871	  1.28632	705.31598	 23.80	
  8.487	-123.723	  1.25214	  0.46754	  0.81158	  0.36585	  0.93017	 -0.01652	  1.27913	705.37000	 23.80	
  8.495	-135.039	  1.24832	  0.42062	  0.86130	  0.39928	  0.88425	 -0.01459	  1.27463	705.24902	 23.80	
  8.494	-146.194	  1.25157	  0.38723	  0.90580	  0.44615	  0.83375	 -0.01153	  1.27583	705.26001	 23.80	
  8.502	-157.493	  1.25083	  0.36152	  0.93834	  0.50006	  0.77354	 -0.01057	  1.27504	705.31897	 23.80	
  8.491	-168.704	  1.25423	  0.34822	  0.95938	  0.55942	  0.71255	 -0.01226	  1.27601	705.36700	 23.80	
  8.500	180.000	  1.25997	  0.34651	  0.96953	  0.62466	  0.65091	 -0.01163	  1.28167	705.31403	 23.80	
 10.200	180.000	  1.24050	  0.26850	  1.02210	  0.60655	  0.63209	 -0.02061	  1.28158	705.32501	 23.80	
 10.191	-170.497	  1.23612	  0.27117	  1.01341	  0.54174	  0.69525	 -0.02126	  1.27867	705.27802	 23.80	
 10.210	-161.034	  1.24383	  0.28406	  1.00377	  0.48350	  0.76389	 -0.02063	  1.28728	705.46503	 23.80	
 10.194	-151.526	  1.24147	  0.30685	  0.97336	  0.42659	  0.82654	 -0.01987	  1.28699	705.51099	 23.80	
 10.190	-142.105	  1.24070	  0.33568	  0.93564	  0.37672	  0.88331	 -0.02127	  1.28700	705.30902	 23.80	
 10.215	-132.646	  1.23764	  0.37187	  0.88755	  0.33186	  0.93259	 -0.02430	  1.28542	705.31598	 23.80	
 10.203	-123.092	  1.23126	  0.41664	  0.82833	  0.29576	  0.97128	 -0.02576	  1.27894	705.50299	 23.80	
 10.192	-113.678	  1.23204	  0.46900	  0.76835	  0.26885	  1.00438	 -0.02871	  1.28191	705.29999	 23.80	
 10.208	-104.249	  1.23034	  0.52610	  0.70445	  0.24991	  1.02697	 -0.03030	  1.28075	705.41803	 23.80	
 10.210	-94.801	  1.22676	  0.58586	  0.63737	  0.23893	  1.03637	 -0.03253	  1.27837	705.37097	 23.80	
 10.210	-85.199	  1.22792	  0.65172	  0.57145	  0.23936	  1.03720	 -0.03232	  1.27970	705.28601	 23.80	
 10.208	-75.751	  1.22626	  0.71607	  0.50947	  0.24828	  1.02503	 -0.03272	  1.27828	705.31702	 23.80	
 10.192	-66.322	  1.23012	  0.78160	  0.45252	  0.26846	  1.00370	 -0.03086	  1.28200	705.25403	 23.80	
 10.203	-56.908	  1.22424	  0.83799	  0.39741	  0.29330	  0.96674	 -0.03042	  1.27666	705.34998	 23.80	
 10.215	-47.354	  1.22610	  0.89541	  0.34985	  0.32874	  0.92576	 -0.02959	  1.27875	705.36499	 23.80	
 10.190	-37.895	  1.22968	  0.94424	  0.31139	  0.37161	  0.87764	 -0.02828	  1.28210	705.42102	 23.80	
 10.194	-28.474	  1.22712	  0.98093	  0.28018	  0.42011	  0.81912	 -0.02508	  1.27780	705.39502	 23.80	
 10.210	-18.966	  1.23657	  1.01767	  0.25859	  0.47994	  0.76214	 -0.02445	  1.28742	705.40601	 23.80	
 10.191	 -9.503	  1.24109	  1.03908	  0.24493	  0.54214	  0.69971	 -0.02490	  1.29180	705.39801	 23.80	
 10.200	  0.000	  1.23594	  1.04190	  0.23875	  0.60289	  0.63177	 -0.02532	  1.28613	705.36401	 23.80	
 10.191	  9.503	  1.23637	  1.03603	  0.24383	  0.66890	  0.56640	 -0.02550	  1.28362	705.37000	 23.80	
 10.210	 18.966	  1.23341	  1.01788	  0.25547	  0.73086	  0.50448	 -0.02554	  1.27979	705.47498	 23.80	
 10.194	 28.474	  1.23361	  0.99034	  0.27838	  0.79277	  0.44820	 -0.02411	  1.27879	705.47998	 23.80	
 10.190	 37.895	  1.23672	  0.95512	  0.30945	  0.85195	  0.39857	 -0.02630	  1.28082	705.30298	 23.80	
 10.215	 47.354	  1.23265	  0.90675	  0.34704	  0.90049	  0.35383	 -0.02801	  1.27582	705.25500	 23.80	
 10.203	 56.908	  1.25054	  0.86430	  0.40010	  0.95591	  0.32414	 -0.02841	  1.29186	705.33099	 23.80	
 10.192	 66.322	  1.25112	  0.80368	  0.45330	  0.98792	  0.29829	 -0.02874	  1.29086	705.32599	 23.80	
 10.208	 75.751	  1.25192	  0.74117	  0.51240	  1.01234	  0.27916	 -0.02899	  1.29204	705.21301	 23.80	
 10.210	 85.199	  1.24355	  0.67179	  0.57202	  1.01741	  0.26925	 -0.02875	  1.28326	705.33099	 23.80	
 10.210	 94.801	  1.25054	  0.60905	  0.64167	  1.02343	  0.27052	 -0.02859	  1.28812	705.45697	 23.80	
 10.208	104.249	  1.24542	  0.54488	  0.70496	  1.00717	  0.27976	 -0.02742	  1.28296	705.27197	 23.80	
 10.192	113.678	  1.25018	  0.48878	  0.77118	  0.98755	  0.30042	 -0.02617	  1.28670	705.45697	 23.90	
 10.203	123.092	  1.24077	  0.43135	  0.82648	  0.94841	  0.32339	 -0.02448	  1.27794	705.40997	 23.90	
 10.215	132.646	  1.24671	  0.38586	  0.88700	  0.91105	  0.35907	 -0.02447	  1.28498	705.46503	 23.90	
 10.190	142.105	  1.25049	  0.34835	  0.93639	  0.86213	  0.40396	 -0.02265	  1.28824	705.39502	 23.90	
 10.194	151.526	  1.24213	  0.31414	  0.96949	  0.79842	  0.45186	 -0.01977	  1.28018	705.45801	 23.80	
 10.210	161.034	  1.23992	  0.28898	  0.99736	  0.73583	  0.50600	 -0.02029	  1.27841	705.37903	 23.90	
 10.191	170.497	  1.23646	  0.27450	  1.01149	  0.66992	  0.56469	 -0.02032	  1.27573	705.42401	 23.90	
 11.899	171.783	  1.21115	  0.19720	  1.05897	  0.64849	  0.54248	 -0.03040	  1.27433	705.30798	 23.90	
 11.890	163.610	  1.22044	  0.21167	  1.05134	  0.71802	  0.48563	 -0.02976	  1.28345	705.38800	 23.90	
 11.889	155.445	  1.21852	  0.23212	  1.02385	  0.78040	  0.42749	 -0.03002	  1.28091	705.40601	 23.90	
 11.909	147.299	  1.21760	  0.25801	  0.98932	  0.84082	  0.37369	 -0.03074	  1.27958	705.51398	 23.90	
 11.902	139.148	  1.22495	  0.29454	  0.95178	  0.90119	  0.32952	 -0.03272	  1.28662	705.52002	 23.90	
 11.894	130.867	  1.23052	  0.33808	  0.90444	  0.95367	  0.29027	 -0.03318	  1.29076	705.39502	 23.90	
 11.897	122.732	  1.22095	  0.38285	  0.84160	  0.98915	  0.25369	 -0.03505	  1.28239	705.41602	 23.90	
 11.903	114.597	  1.21115	  0.43114	  0.77453	  1.01441	  0.22498	 -0.03632	  1.26996	705.31897	 23.80	
 11.893	106.346	  1.21363	  0.49104	  0.71111	  1.04113	  0.20638	 -0.03721	  1.27400	705.38800	 23.90	
 11.892	 98.155	  1.22151	  0.55582	  0.64984	  1.06316	  0.19588	 -0.03877	  1.28254	705.35101	 23.90	
 11.900	 90.000	  1.22220	  0.61939	  0.58410	  1.06881	  0.19054	 -0.04056	  1.28414	705.49597	 23.80	
 11.892	 81.845	  1.21489	  0.68062	  0.51622	  1.05657	  0.19361	 -0.03931	  1.27681	705.43701	 23.80	
 11.893	 73.654	  1.21980	  0.74873	  0.45641	  1.04658	  0.20564	 -0.03873	  1.28235	705.46503	 23.90	
 11.903	 65.403	  1.21530	  0.81028	  0.39654	  1.01836	  0.22368	 -0.03853	  1.27878	705.37299	 23.80	
 11.897	 57.268	  1.21664	  0.87091	  0.34444	  0.98563	  0.25006	 -0.03853	  1.28148	705.42603	 23.80	
 11.894	 49.133	  1.22171	  0.93023	  0.29929	  0.94748	  0.28600	 -0.04045	  1.28890	705.45801	 23.80	
 11.902	 40.852	  1.21844	  0.97710	  0.25578	  0.89605	  0.32558	 -0.03714	  1.28644	705.40198	 23.90	
 11.909	 32.701	  1.21077	  1.01279	  0.22078	  0.83555	  0.37009	 -0.03532	  1.28105	705.52197	 23.80	
 11.889	 24.555	  1.20286	  1.03864	  0.19466	  0.77004	  0.42157	 -0.03330	  1.27353	705.56201	 23.80	
 11.890	 16.390	  1.20893	  1.06737	  0.17716	  0.71110	  0.48128	 -0.03363	  1.28097	705.51398	 23.90	
 11.899	  8.217	  1.20548	  1.07932	  0.16558	  0.64487	  0.54119	 -0.03432	  1.27804	705.51300	 23.80	
 11.900	  0.000	  1.20581	  1.08409	  0.16212	  0.57914	  0.60663	 -0.03373	  1.28014	705.36700	 23.80	
 11.899	 -8.217	  1.20744	  1.08009	  0.16652	  0.51652	  0.67360	 -0.03300	  1.28251	705.42401	 23.80	
 11.890	-16.390	  1.20947	  1.06582	  0.17986	  0.45638	  0.73976	 -0.03181	  1.28551	705.51398	 23.90	
 11.889	-24.555	  1.21277	  1.04351	  0.19864	  0.39973	  0.80634	 -0.03324	  1.28995	705.37500	 23.90	
 11.909	-32.701	  1.20748	  1.00568	  0.22526	  0.34566	  0.86368	 -0.03497	  1.28572	705.45203	 23.90	
 11.902	-40.852	  1.21095	  0.96555	  0.26117	  0.30029	  0.92115	 -0.03716	  1.28983	705.47198	 23.90	
 11.894	-49.133	  1.19798	  0.90446	  0.30004	  0.25703	  0.96116	 -0.03850	  1.27536	705.40601	 23.90	
 11.897	-57.268	  1.20159	  0.85212	  0.34729	  0.22358	  1.00622	 -0.03895	  1.28050	705.58197	 23.90	
 11.903	-65.403	  1.19679	  0.78855	  0.39903	  0.19651	  1.03574	 -0.03845	  1.27525	705.56799	 23.90	
 11.893	-73.654	  1.20141	  0.72711	  0.45916	  0.17913	  1.06370	 -0.03962	  1.28027	705.55103	 23.90	
 11.892	-81.845	  1.19766	  0.65952	  0.51867	  0.16660	  1.07404	 -0.04180	  1.27466	705.51898	 23.90	
 11.900	-90.000	  1.19824	  0.59474	  0.58242	  0.16288	  1.07846	 -0.04107	  1.27465	705.53699	 23.90	
 11.892	-98.155	  1.19911	  0.53183	  0.64788	  0.16717	  1.07480	 -0.04076	  1.27574	705.61798	 23.90	
 11.893	-106.346	  1.19975	  0.47220	  0.71304	  0.17896	  1.06020	 -0.04032	  1.27480	705.47699	 23.90	
 11.903	-114.597	  1.19916	  0.41427	  0.77687	  0.19804	  1.03460	 -0.03794	  1.27284	705.46503	 23.90	
 11.897	-122.732	  1.20380	  0.36478	  0.83901	  0.22538	  1.00512	 -0.03472	  1.27700	705.46802	 23.90	
 11.894	-130.867	  1.20316	  0.32018	  0.89359	  0.25999	  0.96181	 -0.03291	  1.27567	705.58099	 23.90	
 11.902	-139.148	  1.20703	  0.28021	  0.94569	  0.30124	  0.91457	 -0.03095	  1.27750	705.42902	 23.90	
 11.909	-147.299	  1.20777	  0.24794	  0.98787	  0.34707	  0.86007	 -0.02878	  1.27792	705.30200	 23.90	
 11.889	-155.445	  1.20631	  0.22309	  1.01879	  0.39981	  0.79824	 -0.02834	  1.27462	705.46002	 23.90	
 11.890	-163.610	  1.20796	  0.20550	  1.04387	  0.45824	  0.73532	 -0.02943	  1.27557	705.45801	 23.90	
 11.899	-171.783	  1.21373	  0.19527	  1.06363	  0.52031	  0.67333	 -0.03052	  1.27971	705.36200	 23.90	
 11.900	180.000	  1.21064	  0.19272	  1.06461	  0.58264	  0.60709	 -0.02988	  1.27545	705.47699	 23.90	
 13.600	180.000	  1.18317	  0.11751	  1.10778	  0.55958	  0.58286	 -0.03931	  1.27574	705.36700	 23.90	
 13.608	-172.853	  1.18609	  0.11994	  1.10865	  0.49863	  0.64883	 -0.04089	  1.28074	705.39001	 23.90	
 13.611	-165.583	  1.17872	  0.12830	  1.08951	  0.43414	  0.71077	 -0.03894	  1.27428	705.31097	 23.90	
 13.601	-158.353	  1.17541	  0.14315	  1.06541	  0.37506	  0.77338	 -0.03951	  1.27216	705.46503	 23.90	
 13.609	-151.210	  1.17890	  0.16489	  1.03967	  0.32219	  0.83801	 -0.03866	  1.27741	705.43201	 23.90	
 13.611	-143.999	  1.17588	  0.19171	  1.00078	  0.27232	  0.89387	 -0.03806	  1.27536	705.50299	 23.90	
 13.601	-136.825	  1.17221	  0.22603	  0.95300	  0.22718	  0.94535	 -0.04003	  1.27326	705.33899	 23.90	
 13.596	-129.640	  1.17286	  0.26700	  0.90363	  0.18954	  0.99464	 -0.04166	  1.27497	705.28497	 23.90	
 13.611	-122.431	  1.17073	  0.31199	  0.84668	  0.15697	  1.03441	 -0.04409	  1.27393	705.33398	 23.90	
 13.604	-115.211	  1.17388	  0.36375	  0.78879	  0.13180	  1.07094	 -0.04597	  1.27873	705.38800	 23.90	
 13.595	-108.042	  1.16843	  0.41642	  0.72233	  0.11087	  1.09148	 -0.04865	  1.27334	705.36499	 23.90	
 13.607	-100.793	  1.16825	  0.47574	  0.65680	  0.09674	  1.10937	 -0.04786	  1.27326	705.54999	 23.90	
 13.601	-93.617	  1.17042	  0.53879	  0.59321	  0.09049	  1.12002	 -0.04770	  1.27655	705.42401	 23.90	
 13.601	-86.383	  1.16982	  0.60317	  0.52777	  0.09026	  1.12079	 -0.04809	  1.27792	705.53601	 23.90	
 13.607	-79.207	  1.16663	  0.66678	  0.46347	  0.09581	  1.10941	 -0.04597	  1.27441	705.37097	 23.90	
 13.595	-71.958	  1.16890	  0.73348	  0.40472	  0.11002	  1.09441	 -0.04446	  1.27680	705.45697	 23.90	
 13.604	-64.789	  1.17061	  0.79848	  0.34778	  0.12851	  1.07130	 -0.04573	  1.28053	705.48499	 23.90	
 13.611	-57.569	  1.16831	  0.85749	  0.29491	  0.15398	  1.03588	 -0.04762	  1.27796	705.49701	 23.90	
 13.596	-50.360	  1.17157	  0.91579	  0.24871	  0.18612	  0.99760	 -0.04588	  1.28080	705.36200	 23.90	
 13.601	-43.175	  1.17358	  0.96913	  0.20684	  0.22423	  0.95139	 -0.04601	  1.28347	705.34698	 23.90	
 13.611	-36.001	  1.17312	  1.01539	  0.17057	  0.26829	  0.89698	 -0.04193	  1.28141	705.47400	 23.90	
 13.609	-28.790	  1.17310	  1.05330	  0.14140	  0.31743	  0.83872	 -0.04068	  1.28177	705.44897	 23.90	
 13.601	-21.647	  1.17128	  1.08171	  0.11794	  0.36989	  0.77592	 -0.03912	  1.27781	705.47400	 23.90	
 13.611	-14.417	  1.17527	  1.10759	  0.10164	  0.42951	  0.71322	 -0.03865	  1.28128	705.58398	 23.90	
 13.608	 -7.147	  1.17473	  1.12054	  0.09034	  0.49100	  0.64679	 -0.03823	  1.28000	705.48499	 23.90	
 13.600	  0.000	  1.17275	  1.12314	  0.08769	  0.55307	  0.58106	 -0.04032	  1.27743	705.48798	 23.90	
 13.608	  7.147	  1.17260	  1.11923	  0.08944	  0.61740	  0.51675	 -0.04129	  1.27465	705.55103	 23.90	
 13.611	 14.417	  1.16828	  1.10310	  0.09732	  0.67954	  0.45264	 -0.04213	  1.26972	705.43298	 23.90	
 13.601	 21.647	  1.17429	  1.08670	  0.11432	  0.74667	  0.39599	 -0.04170	  1.27511	705.52301	 23.90	
 13.609	 28.790	  1.17284	  1.05675	  0.13617	  0.80759	  0.34083	 -0.04233	  1.27112	705.39801	 23.90	
 13.611	 36.001	  1.17274	  1.01983	  0.16499	  0.86499	  0.29137	 -0.04404	  1.27002	705.42401	 23.90	
 13.601	 43.175	  1.17869	  0.97995	  0.20132	  0.92186	  0.24910	 -0.04724	  1.27369	705.53003	 23.90	
 13.596	 50.360	  1.17652	  0.92794	  0.24172	  0.96804	  0.20969	 -0.04892	  1.27048	705.58398	 23.90	
 13.611	 57.569	  1.18567	  0.87900	  0.29002	  1.01736	  0.17769	 -0.05009	  1.28018	705.38800	 23.90	
 13.604	 64.789	  1.18541	  0.81883	  0.34274	  1.05108	  0.15210	 -0.04932	  1.27659	705.44702	 23.90	
 13.595	 71.958	  1.17952	  0.75133	  0.39803	  1.07043	  0.13296	 -0.04935	  1.26923	705.52002	 23.90	
 13.607	 79.207	  1.17485	  0.68397	  0.45591	  1.08323	  0.11891	 -0.05124	  1.26381	705.41998	 23.90	
 13.601	 86.383	  1.18468	  0.62472	  0.52256	  1.10056	  0.11411	 -0.05178	  1.27144	705.51300	 23.90	
 13.601	 93.617	  1.18872	  0.56151	  0.59009	  1.10438	  0.11476	 -0.05108	  1.27660	705.41199	 23.90	
 13.607	100.793	  1.18418	  0.49801	  0.65283	  1.09174	  0.12110	 -0.04919	  1.27147	705.37000	 23.90	
 13.595	108.042	  1.18753	  0.43853	  0.72052	  1.07759	  0.13480	 -0.04852	  1.27556	705.42401	 23.90	
 13.604	115.211	  1.18856	  0.38222	  0.78501	  1.05297	  0.15416	 -0.04628	  1.27536	705.26099	 23.90	
 13.611	122.431	  1.18571	  0.32992	  0.84422	  1.01696	  0.17995	 -0.04648	  1.27249	705.38800	 23.90	
 13.596	129.640	  1.19096	  0.28417	  0.90571	  0.97933	  0.21459	 -0.04599	  1.27820	705.45801	 23.90	
 13.601	136.825	  1.18785	  0.24067	  0.95508	  0.92892	  0.25234	 -0.04254	  1.27557	705.39801	 23.90	
 13.611	143.999	  1.18795	  0.20515	  1.00161	  0.87648	  0.29580	 -0.03986	  1.27726	705.36200	 23.90	
 13.609	151.210	  1.18834	  0.17534	  1.04021	  0.81849	  0.34556	 -0.03891	  1.27729	705.40100	 23.90	
 13.601	158.353	  1.18809	  0.15152	  1.07012	  0.75594	  0.39973	 -0.03832	  1.27711	705.37903	 23.90	
 13.611	165.583	  1.18789	  0.13351	  1.09294	  0.69174	  0.45845	 -0.03932	  1.27830	705.50500	 23.90	
 13.608	172.853	  1.18896	  0.12304	  1.10800	  0.62799	  0.52018	 -0.03945	  1.28096	705.53601	 23.90	
 15.298	173.587	  1.15065	  0.05083	  1.14083	  0.59916	  0.49217	 -0.04802	  1.27436	705.40997	 23.90	
 15.291	167.167	  1.15226	  0.06045	  1.12943	  0.66344	  0.43174	 -0.04746	  1.27334	705.38202	 23.90	
 15.307	160.676	  1.15840	  0.07453	  1.11559	  0.73217	  0.37439	 -0.04820	  1.27902	705.42902	 23.90	
 15.300	154.261	  1.15708	  0.09581	  1.08666	  0.79419	  0.31793	 -0.04675	  1.27737	705.35400	 23.90	
 15.288	147.854	  1.15999	  0.12280	  1.05416	  0.85550	  0.26918	 -0.04688	  1.28002	705.52698	 23.90	
 15.293	141.428	  1.15466	  0.15351	  1.00801	  0.90803	  0.22207	 -0.04881	  1.27386	705.44897	 23.90	
 15.299	134.985	  1.15555	  0.19169	  0.96066	  0.96079	  0.18090	 -0.05208	  1.27478	705.38202	 23.90	
 15.305	128.583	  1.15478	  0.23276	  0.90688	  1.00741	  0.14336	 -0.05436	  1.27292	705.47699	 23.90	
 15.309	122.142	  1.16023	  0.27998	  0.85335	  1.05250	  0.11259	 -0.05601	  1.27895	705.51599	 23.90	
 15.304	115.711	  1.15850	  0.33009	  0.79083	  1.08369	  0.08595	 -0.05552	  1.27802	705.53900	 23.90	
 15.297	109.291	  1.15304	  0.38445	  0.72424	  1.10503	  0.06754	 -0.05631	  1.27142	705.44397	 23.90	
 15.293	102.897	  1.16128	  0.44579	  0.66445	  1.13173	  0.05404	 -0.05830	  1.28017	705.45801	 23.90	
 15.293	 96.458	  1.16197	  0.50743	  0.59819	  1.14426	  0.04356	 -0.06018	  1.28199	705.44098	 23.90	
 15.300	 90.000	  1.16500	  0.57262	  0.53401	  1.15176	  0.03954	 -0.06281	  1.28607	705.42102	 23.90	
 15.293	 83.542	  1.16525	  0.63871	  0.46917	  1.14815	  0.04325	 -0.06108	  1.28613	705.35101	 23.90	
 15.293	 77.103	  1.16544	  0.70449	  0.40756	  1.13732	  0.05150	 -0.06094	  1.28903	705.39001	 23.90	
 15.297	 70.709	  1.16112	  0.76611	  0.34759	  1.11328	  0.06618	 -0.05966	  1.28410	705.46802	 23.90	
 15.304	 64.289	  1.15629	  0.82672	  0.29109	  1.08355	  0.08512	 -0.05804	  1.28050	705.39801	 23.90	
 15.309	 57.858	  1.15389	  0.88525	  0.23943	  1.04760	  0.10935	 -0.05773	  1.28034	705.46503	 24.00	
 15.305	 51.417	  1.15378	  0.94132	  0.19203	  1.00765	  0.14027	 -0.05791	  1.28125	705.42102	 24.00	
 15.299	 45.015	  1.15528	  0.99452	  0.15289	  0.96209	  0.17951	 -0.05750	  1.28565	705.35101	 24.00	
 15.293	 38.572	  1.14215	  1.02953	  0.11646	  0.89853	  0.22046	 -0.05442	  1.27102	705.31097	 23.90	
 15.288	 32.146	  1.14446	  1.07156	  0.08319	  0.84465	  0.26498	 -0.05237	  1.27532	705.38098	 24.00	
 15.300	 25.739	  1.14047	  1.10106	  0.06169	  0.78377	  0.31692	 -0.04937	  1.27222	705.31598	 24.00	
 15.307	 19.324	  1.14385	  1.13046	  0.04136	  0.72318	  0.37288	 -0.04662	  1.27722	705.39502	 24.00	
 15.291	 12.833	  1.13654	  1.14123	  0.02741	  0.65393	  0.42984	 -0.04611	  1.27011	705.28802	 24.00	
 15.298	  6.413	  1.13918	  1.15588	  0.02012	  0.59241	  0.49152	 -0.04608	  1.27456	705.33698	 24.00	
 15.300	  0.000	  1.13244	  1.15278	  0.01711	  0.52478	  0.55241	 -0.04372	  1.26920	705.42902	 24.00	
 15.298	 -6.413	  1.13883	  1.15492	  0.01994	  0.46543	  0.61933	 -0.04351	  1.27706	705.46600	 24.00	
 15.291	-12.833	  1.13955	  1.14346	  0.03077	  0.40617	  0.68520	 -0.04361	  1.27837	705.45502	 23.90	
 15.307	-19.324	  1.13664	  1.12160	  0.04370	  0.34595	  0.74890	 -0.04414	  1.27686	705.46503	 23.90	
 15.300	-25.739	  1.13325	  1.09091	  0.06693	  0.29388	  0.80818	 -0.04598	  1.27334	705.43701	 23.90	
 15.288	-32.146	  1.13152	  1.05491	  0.09245	  0.24337	  0.86621	 -0.04527	  1.27187	705.46802	 24.00	
 15.293	-38.572	  1.12700	  1.01088	  0.12296	  0.19713	  0.91937	 -0.04902	  1.26881	705.47998	 23.90	
 15.299	-45.015	  1.13018	  0.96698	  0.15888	  0.15615	  0.97331	 -0.04924	  1.27347	705.45099	 23.90	
 15.305	-51.417	  1.12861	  0.91360	  0.19941	  0.12054	  1.01692	 -0.05133	  1.26995	705.46899	 23.90	
 15.309	-57.858	  1.14095	  0.86578	  0.24853	  0.09123	  1.06917	 -0.05081	  1.28476	705.49902	 23.90	
 15.304	-64.289	  1.13189	  0.79852	  0.29755	  0.06522	  1.09389	 -0.04816	  1.27362	705.34698	 23.90	
 15.297	-70.709	  1.12823	  0.73371	  0.35242	  0.04745	  1.11605	 -0.04751	  1.26937	705.39600	 23.90	
 15.293	-77.103	  1.12804	  0.66951	  0.40914	  0.03175	  1.13483	 -0.04863	  1.26920	705.53601	 23.90	
 15.293	-83.542	  1.12907	  0.60782	  0.47276	  0.02941	  1.14499	 -0.05048	  1.26894	705.40601	 23.90	
 15.300	-90.000	  1.13323	  0.54467	  0.53645	  0.02360	  1.15378	 -0.05103	  1.27351	705.45203	 23.90	
 15.293	-96.458	  1.13065	  0.48077	  0.59867	  0.02598	  1.14588	 -0.05170	  1.26907	705.41199	 23.90	
 15.293	-102.897	  1.13813	  0.42574	  0.66779	  0.03781	  1.14079	 -0.05244	  1.27619	705.34698	 23.90	
 15.297	-109.291	  1.13675	  0.36765	  0.73074	  0.05181	  1.11995	 -0.05447	  1.27360	705.52301	 23.90	
 15.304	-115.711	  1.13757	  0.31429	  0.79294	  0.06979	  1.09478	 -0.05371	  1.27469	705.49902	 23.90	
 15.309	-122.142	  1.14173	  0.26539	  0.85492	  0.09592	  1.06439	 -0.05181	  1.27732	705.53699	 23.90	
 15.305	-128.583	  1.14957	  0.22153	  0.91666	  0.12684	  1.03086	 -0.05091	  1.28647	705.47699	 23.90	
 15.299	-134.985	  1.14763	  0.18327	  0.96657	  0.16463	  0.98306	 -0.04876	  1.28169	705.40601	 23.90	
 15.293	-141.428	  1.13934	  0.14411	  1.00509	  0.20198	  0.92267	 -0.04636	  1.27091	705.45801	 23.90	
 15.288	-147.854	  1.14583	  0.11610	  1.05071	  0.25006	  0.87088	 -0.04614	  1.27708	705.47400	 23.90	
 15.300	-154.261	  1.14502	  0.09224	  1.08248	  0.30060	  0.81088	 -0.04738	  1.27379	705.58600	 23.90	
 15.307	-160.676	  1.14326	  0.07138	  1.10628	  0.35147	  0.74700	 -0.04633	  1.27027	705.51099	 23.90	
 15.291	-167.167	  1.14872	  0.05968	  1.12932	  0.41245	  0.68477	 -0.04895	  1.27506	705.32300	 23.90	
 15.298	-173.587	  1.14730	  0.05126	  1.13780	  0.47148	  0.61885	 -0.04929	  1.27193	705.53003	 23.90	
 15.300	180.000	  1.14485	  0.04824	  1.13830	  0.53171	  0.55292	 -0.04743	  1.26707	705.48901	 23.90	
 17.000	180.000	  1.11316	 -0.00703	  1.17412	  0.51346	  0.53274	 -0.05262	  1.27086	705.45099	 23.90	
 16.990	-174.179	  1.10932	 -0.00177	  1.16742	  0.45298	  0.59501	 -0.05280	  1.26675	705.52002	 23.90	
 17.009	-168.383	  1.10929	 -0.00039	  1.15982	  0.39253	  0.65649	 -0.05302	  1.26910	705.44098	 23.90	
 17.000	-162.596	  1.11100	  0.01209	  1.14487	  0.33601	  0.72122	 -0.05138	  1.27283	705.46899	 23.90	
 16.990	-156.759	  1.12498	  0.03004	  1.13614	  0.28718	  0.79387	 -0.05202	  1.28977	705.59497	 23.90	
 16.995	-150.919	  1.11804	  0.05058	  1.09954	  0.23511	  0.85019	 -0.05215	  1.28303	705.50500	 23.90	
 16.988	-145.161	  1.10604	  0.07490	  1.05292	  0.18524	  0.89852	 -0.05162	  1.27258	705.37000	 23.90	
 17.014	-139.343	  1.10648	  0.10489	  1.01203	  0.14186	  0.95457	 -0.05254	  1.27535	705.39502	 23.90	
 17.007	-133.546	  1.10137	  0.14106	  0.96104	  0.10616	  0.99864	 -0.05206	  1.26862	705.42102	 23.90	
 17.001	-127.699	  1.10626	  0.18018	  0.91361	  0.07205	  1.04890	 -0.05384	  1.27574	705.40399	 23.90	
 17.006	-121.937	  1.10440	  0.22317	  0.85692	  0.04205	  1.08711	 -0.05261	  1.27589	705.46100	 23.90	
 17.002	-116.134	  1.10778	  0.27081	  0.80158	  0.01713	  1.12490	 -0.05551	  1.28125	705.52698	 23.90	
 17.001	-110.310	  1.10248	  0.32030	  0.73621	 -0.00294	  1.14676	 -0.05460	  1.27639	705.42401	 23.90	
 16.988	-104.517	  1.10138	  0.37617	  0.67416	 -0.01522	  1.16489	 -0.05244	  1.27480	705.44702	 23.90	
 17.008	-98.662	  1.10495	  0.43485	  0.61226	 -0.02657	  1.18291	 -0.05183	  1.27997	705.39801	 23.90	
 16.996	-92.909	  1.10012	  0.49181	  0.54814	 -0.03178	  1.18456	 -0.05019	  1.27408	705.35699	 23.90	
 16.996	-87.091	  1.09751	  0.55231	  0.48396	 -0.03172	  1.18284	 -0.04764	  1.27236	705.44098	 23.90	
 17.012	-81.253	  1.09713	  0.61562	  0.42316	 -0.02855	  1.17741	 -0.04700	  1.27258	705.50299	 23.90	
 16.988	-75.483	  1.09742	  0.67821	  0.36519	 -0.01937	  1.16518	 -0.04618	  1.27537	705.38501	 23.90	
 17.001	-69.690	  1.09652	  0.74102	  0.30953	 -0.00477	  1.14522	 -0.04401	  1.27483	705.47498	 23.90	
 17.002	-63.866	  1.09807	  0.80415	  0.25786	  0.01567	  1.11959	 -0.04695	  1.27652	705.35699	 23.90	
 17.006	-58.063	  1.10070	  0.86490	  0.20794	  0.03912	  1.08937	 -0.04750	  1.27908	705.46002	 23.90	
 17.001	-52.301	  1.09854	  0.91905	  0.16402	  0.06891	  1.04787	 -0.04909	  1.27651	705.40900	 23.90	
 17.007	-46.454	  1.09447	  0.96880	  0.11754	  0.09710	  1.00036	 -0.05100	  1.27327	705.40100	 23.90	
 17.014	-40.657	  1.09530	  1.01772	  0.08571	  0.13788	  0.95229	 -0.04875	  1.27415	705.53699	 23.90	
 16.988	-34.839	  1.09359	  1.05714	  0.05570	  0.18156	  0.89588	 -0.04441	  1.26921	705.38702	 23.90	
 16.995	-29.081	  1.09726	  1.09801	  0.02524	  0.22498	  0.84182	 -0.04488	  1.27375	705.45203	 23.90	
 16.990	-23.241	  1.09800	  1.12911	  0.00336	  0.27561	  0.78183	 -0.04375	  1.27368	705.41602	 23.90	
 17.000	-17.404	  1.10575	  1.16219	 -0.01669	  0.32995	  0.72492	 -0.04489	  1.28268	705.35101	 23.90	
 17.009	-11.617	  1.10222	  1.17443	 -0.02391	  0.38902	  0.65979	 -0.04330	  1.27566	705.46899	 23.90	
 16.990	 -5.821	  1.09784	  1.17982	 -0.03349	  0.44442	  0.59286	 -0.04423	  1.27007	705.35602	 23.90	
 17.000	  0.000	  1.10017	  1.18572	 -0.03302	  0.50720	  0.53279	 -0.04542	  1.27141	705.35901	 23.90	
 16.990	  5.821	  1.10582	  1.18890	 -0.03468	  0.57137	  0.47221	 -0.04738	  1.27674	705.45099	 23.90	
 17.009	 11.617	  1.10070	  1.17580	 -0.03079	  0.63001	  0.40940	 -0.04701	  1.27118	705.40198	 23.90	
 17.000	 17.404	  1.10283	  1.16052	 -0.01470	  0.69428	  0.35485	 -0.04720	  1.27108	705.45203	 23.90	
 16.990	 23.241	  1.10924	  1.14385	 -0.00141	  0.75987	  0.30036	 -0.04854	  1.27726	705.48901	 23.90	
 16.995	 29.081	  1.10634	  1.11037	  0.02012	  0.81720	  0.24770	 -0.05122	  1.27227	705.45801	 23.90	
 16.988	 34.839	  1.10627	  1.07436	  0.04814	  0.87345	  0.20284	 -0.05573	  1.26906	705.53900	 23.90	
 17.014	 40.657	  1.11282	  1.03951	  0.07671	  0.93405	  0.15884	 -0.06096	  1.27737	705.50800	 23.90	
 17.007	 46.454	  1.11324	  0.99211	  0.11514	  0.98317	  0.12186	 -0.06428	  1.27468	705.59003	 23.90	
 17.001	 52.301	  1.10932	  0.93632	  0.15178	  1.02394	  0.08516	 -0.06406	  1.27008	705.59003	 23.90	
 17.006	 58.063	  1.11335	  0.88470	  0.19175	  1.06751	  0.05007	 -0.06569	  1.27318	705.57300	 23.90	
 17.002	 63.866	  1.12706	  0.83576	  0.24631	  1.11366	  0.02959	 -0.06604	  1.28735	705.53400	 23.90	
 17.001	 69.690	  1.12613	  0.77291	  0.29814	  1.14047	  0.00760	 -0.06698	  1.28487	705.33301	 23.90	
 16.988	 75.483	  1.12806	  0.71042	  0.35624	  1.16218	 -0.00591	 -0.06747	  1.28664	705.46802	 23.90	
 17.012	 81.253	  1.12930	  0.64718	  0.41512	  1.17755	 -0.01655	 -0.06961	  1.28615	705.52197	 23.90	
 16.996	 87.091	  1.13173	  0.58425	  0.47922	  1.18595	 -0.01977	 -0.06907	  1.28749	705.56702	 23.90	
 16.996	 92.909	  1.12805	  0.51769	  0.53978	  1.18303	 -0.02323	 -0.06883	  1.28289	705.59302	 23.90	
 17.008	 98.662	  1.13360	  0.45861	  0.60611	  1.18221	 -0.01836	 -0.06610	  1.28978	705.40997	 23.90	
 16.988	104.517	  1.13356	  0.39768	  0.67239	  1.16733	 -0.00814	 -0.06406	  1.28811	705.46503	 23.90	
 17.001	110.310	  1.13606	  0.34318	  0.73939	  1.14909	  0.00950	 -0.06379	  1.29072	705.42603	 24.00	
 17.002	116.134	  1.13316	  0.28577	  0.79944	  1.11834	  0.02637	 -0.06285	  1.28621	705.50000	 24.00	
 17.006	121.937	  1.13022	  0.23427	  0.85881	  1.08233	  0.05039	 -0.06356	  1.28573	705.39600	 24.00	
 17.001	127.699	  1.12096	  0.18820	  0.90916	  1.03398	  0.08086	 -0.06239	  1.27377	705.43701	 24.00	
 17.007	133.546	  1.12252	  0.14618	  0.96415	  0.99058	  0.11492	 -0.06031	  1.27612	705.55798	 24.00	
 17.014	139.343	  1.11825	  0.10935	  1.00934	  0.93714	  0.15322	 -0.05909	  1.27088	705.46002	 24.00	
 16.988	145.161	  1.12161	  0.08015	  1.05600	  0.88462	  0.20085	 -0.05422	  1.27422	705.39502	 24.00	
 16.995	150.919	  1.12518	  0.05177	  1.09683	  0.82980	  0.24736	 -0.05336	  1.27932	705.52698	 24.00	
 16.990	156.759	  1.11720	  0.03694	  1.11970	  0.76549	  0.30130	 -0.05140	  1.27056	705.49902	 23.90	
 17.000	162.596	  1.11726	  0.01566	  1.14500	  0.70217	  0.35486	 -0.05494	  1.27170	705.41302	 24.00	
 17.009	168.383	  1.11745	  0.00130	  1.16365	  0.63956	  0.41178	 -0.05608	  1.27333	705.40100	 24.00	
 16.990	174.179	  1.12001	 -0.00305	  1.17587	  0.58040	  0.47343	 -0.05208	  1.27622	705.52802	 24.00	
 18.709	174.675	  1.07268	 -0.07763	  1.19887	  0.54378	  0.43752	 -0.05166	  1.26962	705.44702	 23.90	
 18.703	169.441	  1.07799	 -0.06955	  1.19458	  0.60824	  0.38245	 -0.05319	  1.27346	705.37903	 23.90	
 18.691	164.085	  1.08218	 -0.05850	  1.18253	  0.67386	  0.32609	 -0.05498	  1.27741	705.31897	 24.00	
 18.706	158.818	  1.08138	 -0.04192	  1.15956	  0.73597	  0.27104	 -0.05422	  1.27553	705.41803	 24.00	
 18.695	153.537	  1.08460	 -0.02254	  1.13388	  0.79766	  0.22052	 -0.05291	  1.27829	705.41998	 24.00	
 18.704	148.255	  1.08008	  0.00325	  1.09425	  0.85279	  0.17248	 -0.05147	  1.27140	705.46899	 24.00	
 18.698	142.952	  1.08380	  0.03292	  1.05744	  0.91265	  0.12885	 -0.05378	  1.27546	705.50800	 24.00	
 18.699	137.625	  1.08230	  0.06554	  1.01144	  0.96418	  0.08838	 -0.05648	  1.27326	705.47400	 24.00	
 18.705	132.343	  1.09003	  0.10400	  0.96774	  1.01893	  0.05368	 -0.06134	  1.28174	705.43500	 24.00	
 18.713	127.067	  1.08358	  0.14384	  0.90861	  1.05710	  0.02053	 -0.06139	  1.27435	705.48901	 24.00	
 18.700	121.794	  1.08428	  0.18905	  0.85219	  1.09619	 -0.00688	 -0.06139	  1.27510	705.53699	 24.00	
 18.698	116.504	  1.08016	  0.23667	  0.78977	  1.12518	 -0.02983	 -0.06001	  1.27005	705.52197	 24.00	
 18.707	111.165	  1.08267	  0.28810	  0.72992	  1.15604	 -0.05088	 -0.06039	  1.27430	705.58698	 24.00	
 18.690	105.863	  1.08200	  0.34172	  0.66598	  1.17657	 -0.06691	 -0.06054	  1.27294	705.53601	 24.00	
 18.696	100.583	  1.07769	  0.39764	  0.59973	  1.18632	 -0.07701	 -0.06200	  1.26832	705.47400	 24.00	
 18.700	 95.309	  1.08112	  0.45828	  0.53929	  1.19871	 -0.08205	 -0.06375	  1.27217	705.46100	 24.00	
 18.700	 90.000	  1.07749	  0.51695	  0.47596	  1.19865	 -0.08547	 -0.06680	  1.26928	705.55902	 24.00	
 18.700	 84.691	  1.07631	  0.57871	  0.41360	  1.19356	 -0.08290	 -0.06613	  1.26738	705.54401	 24.00	
 18.696	 79.417	  1.07833	  0.64222	  0.35494	  1.18759	 -0.07755	 -0.06673	  1.27231	705.59003	 24.00	
 18.690	 74.137	  1.07445	  0.70166	  0.29596	  1.16984	 -0.06965	 -0.06460	  1.26963	705.43701	 24.00	
 18.707	 68.835	  1.07468	  0.76517	  0.24265	  1.15007	 -0.05379	 -0.06362	  1.27185	705.59802	 24.00	
 18.698	 63.496	  1.07306	  0.82535	  0.19116	  1.12113	 -0.03378	 -0.06439	  1.27106	705.44897	 24.00	
 18.700	 58.206	  1.07327	  0.88246	  0.14122	  1.09280	 -0.00432	 -0.06352	  1.27606	705.53699	 24.00	
 18.713	 52.933	  1.06801	  0.93405	  0.09702	  1.04937	  0.02338	 -0.06344	  1.27128	705.55798	 24.00	
 18.705	 47.657	  1.07189	  0.98955	  0.05805	  1.00930	  0.05560	 -0.06451	  1.27735	705.38098	 24.00	
 18.699	 42.375	  1.07026	  1.03646	  0.02169	  0.95998	  0.09150	 -0.06109	  1.27810	705.52698	 24.00	
 18.698	 37.048	  1.06505	  1.07561	 -0.01108	  0.90274	  0.13001	 -0.05607	  1.27224	705.52698	 24.00	
 18.704	 31.745	  1.06766	  1.11753	 -0.03858	  0.84912	  0.17620	 -0.04981	  1.27812	705.57599	 24.00	
 18.695	 26.463	  1.06055	  1.14286	 -0.06112	  0.78523	  0.22283	 -0.04869	  1.27143	705.35602	 24.00	
 18.706	 21.182	  1.05907	  1.16951	 -0.08155	  0.72453	  0.27254	 -0.04619	  1.27127	705.58197	 24.00	
 18.691	 15.915	  1.05949	  1.18985	 -0.09522	  0.66278	  0.32811	 -0.04411	  1.27281	705.46503	 24.00	
 18.703	 10.559	  1.05676	  1.20210	 -0.10736	  0.59776	  0.38411	 -0.04457	  1.27161	705.51599	 24.00	
 18.709	  5.325	  1.05644	  1.20994	 -0.11292	  0.53701	  0.44227	 -0.04280	  1.27116	705.54401	 24.00	
 18.700	  0.000	  1.05832	  1.21554	 -0.11485	  0.47559	  0.50554	 -0.04244	  1.27577	705.49597	 24.00	
 18.709	 -5.325	  1.05446	  1.20912	 -0.11273	  0.41276	  0.56671	 -0.04189	  1.27363	705.48499	 24.00	
 18.703	-10.559	  1.05603	  1.20170	 -0.10667	  0.35568	  0.62921	 -0.04051	  1.27609	705.54700	 24.00	
 18.691	-15.915	  1.05451	  1.18441	 -0.09597	  0.29688	  0.69364	 -0.04074	  1.27583	705.46802	 24.00	
 18.706	-21.182	  1.05276	  1.16141	 -0.08063	  0.24320	  0.75345	 -0.04229	  1.27363	705.51898	 24.00	
 18.695	-26.463	  1.05539	  1.13583	 -0.05977	  0.19395	  0.81698	 -0.04336	  1.27784	705.48199	 24.00	
 18.704	-31.745	  1.05133	  1.09782	 -0.03750	  0.14410	  0.87333	 -0.04474	  1.27485	705.55798	 24.00	
 18.698	-37.048	  1.05256	  1.05970	 -0.00866	  0.10103	  0.93027	 -0.04410	  1.27680	705.61798	 24.00	
 18.699	-42.375	  1.05177	  1.01376	  0.02503	  0.06210	  0.98198	 -0.04608	  1.27556	705.38098	 24.00	
 18.705	-47.657	  1.05024	  0.96400	  0.05884	  0.02438	  1.02959	 -0.04686	  1.27520	705.50500	 24.00	
 18.713	-52.933	  1.05219	  0.91239	  0.10062	 -0.00748	  1.07534	 -0.04398	  1.27718	705.57501	 24.00	
 18.700	-58.206	  1.04642	  0.85038	  0.14398	 -0.03575	  1.10795	 -0.04196	  1.27046	705.55798	 24.00	
 18.698	-63.496	  1.04870	  0.79301	  0.19276	 -0.05821	  1.14192	 -0.04322	  1.27269	705.50598	 24.00	
 18.707	-68.835	  1.05050	  0.73292	  0.24522	 -0.07666	  1.17024	 -0.04199	  1.27358	705.49200	 24.00	
 18.690	-74.137	  1.05081	  0.67014	  0.30056	 -0.09144	  1.19075	 -0.04149	  1.27327	705.59900	 24.00	
 18.696	-79.417	  1.05369	  0.60835	  0.35852	 -0.10306	  1.20898	 -0.04292	  1.27670	705.57800	 24.00	
 18.700	-84.691	  1.05063	  0.54398	  0.41634	 -0.10874	  1.21383	 -0.04257	  1.27181	705.53003	 24.00	
 18.700	-90.000	  1.05231	  0.48112	  0.47841	 -0.11161	  1.21786	 -0.04445	  1.27290	705.57501	 24.00	
 18.700	-95.309	  1.05111	  0.42031	  0.53990	 -0.10911	  1.21364	 -0.04751	  1.27081	705.54999	 24.00	
 18.696	-100.583	  1.05411	  0.36280	  0.60378	 -0.10336	  1.20684	 -0.04894	  1.27329	705.61700	 24.00	
 18.690	-105.863	  1.05380	  0.30696	  0.66748	 -0.09098	  1.19099	 -0.04999	  1.27279	705.62402	 24.00	
 18.707	-111.165	  1.05416	  0.25321	  0.72934	 -0.07565	  1.16908	 -0.05148	  1.27286	705.51599	 24.10	
 18.698	-116.504	  1.05916	  0.20457	  0.79416	 -0.05550	  1.14693	 -0.05309	  1.27724	705.60901	 24.10	
 18.700	-121.794	  1.05762	  0.15627	  0.85119	 -0.03360	  1.11245	 -0.05238	  1.27485	705.68799	 24.10	
 18.713	-127.067	  1.05928	  0.11400	  0.90897	 -0.00539	  1.07577	 -0.05101	  1.27594	705.62097	 24.10	
 18.705	-132.343	  1.06109	  0.07499	  0.96187	  0.02806	  1.03124	 -0.05296	  1.27640	705.56201	 24.10	
 18.699	-137.625	  1.06657	  0.04167	  1.01435	  0.06608	  0.98671	 -0.05233	  1.28032	705.57501	 24.10	
 18.698	-142.952	  1.06738	  0.01106	  1.05900	  0.10700	  0.93391	 -0.05359	  1.27979	705.57001	 24.10	
 18.704	-148.255	  1.06331	 -0.01598	  1.09295	  0.15035	  0.87380	 -0.05385	  1.27330	705.56097	 24.10	
 18.695	-153.537	  1.06750	 -0.03739	  1.12934	  0.20039	  0.81680	 -0.05163	  1.27562	705.52197	 24.10	
 18.706	-158.818	  1.06764	 -0.05624	  1.15701	  0.25123	  0.75555	 -0.05309	  1.27582	705.64899	 24.10	
 18.691	-164.085	  1.07009	 -0.06856	  1.17757	  0.30558	  0.69561	 -0.05355	  1.27491	705.60699	 24.10	
 18.703	-169.441	  1.07495	 -0.07849	  1.19849	  0.36580	  0.63408	 -0.05107	  1.27947	705.63397	 24.10	
 18.709	-174.675	  1.07123	 -0.08344	  1.20102	  0.42284	  0.56894	 -0.05254	  1.27271	705.65198	 24.10	
 18.700	180.000	  1.07540	 -0.08332	  1.20730	  0.48556	  0.50899	 -0.05227	  1.27594	705.58698	 24.10	
 20.400	180.000	  1.02608	 -0.16726	  1.22906	  0.44452	  0.46722	 -0.05174	  1.27244	705.76398	 24.10	
 20.401	-175.153	  1.02655	 -0.16665	  1.22853	  0.38401	  0.52937	 -0.04867	  1.27546	705.62097	 24.10	
 20.407	-170.264	  1.02530	 -0.16343	  1.22150	  0.32475	  0.59124	 -0.04848	  1.27758	705.66803	 24.10	
 20.410	-165.423	  1.01962	 -0.15497	  1.20288	  0.26530	  0.65164	 -0.04907	  1.27194	705.63000	 24.10	
 20.392	-160.496	  1.01697	 -0.14091	  1.18084	  0.21037	  0.71314	 -0.05147	  1.27010	705.59802	 24.10	
 20.401	-155.705	  1.01943	 -0.12695	  1.16022	  0.15892	  0.77589	 -0.04960	  1.27556	705.49200	 24.10	
 20.405	-150.835	  1.01713	 -0.10761	  1.12902	  0.10883	  0.83552	 -0.04950	  1.27494	705.64099	 24.10	
 20.397	-145.903	  1.01416	 -0.08341	  1.08968	  0.06243	  0.89220	 -0.05065	  1.27246	705.54498	 24.10	
 20.392	-141.062	  1.01404	 -0.05471	  1.04906	  0.02131	  0.94709	 -0.05338	  1.27401	705.57001	 24.10	
 20.396	-136.227	  1.01180	 -0.02449	  1.00249	 -0.01749	  0.99768	 -0.05164	  1.27294	705.62097	 24.10	
 20.408	-131.372	  1.01286	  0.00781	  0.95517	 -0.05546	  1.04849	 -0.04885	  1.27698	705.67102	 24.10	
 20.410	-126.511	  1.00739	  0.04781	  0.89705	 -0.08480	  1.08622	 -0.04852	  1.27077	705.57501	 24.10	
 20.400	-121.604	  1.01075	  0.09029	  0.84367	 -0.11250	  1.12943	 -0.04770	  1.27672	705.72400	 24.10	
 20.403	-116.741	  1.00949	  0.13635	  0.78348	 -0.13598	  1.16121	 -0.05080	  1.27531	705.68298	 24.10	
 20.413	-111.900	  1.00713	  0.18432	  0.72135	 -0.15650	  1.18776	 -0.04779	  1.27454	705.58197	 24.10	
 20.398	-107.004	  1.00323	  0.23633	  0.65665	 -0.17123	  1.20585	 -0.04546	  1.27062	705.78601	 24.10	
 20.394	-102.132	  1.00307	  0.29170	  0.59358	 -0.18317	  1.22286	 -0.04604	  1.27165	705.58600	 24.10	
 20.403	-97.332	  0.99762	  0.34618	  0.52872	 -0.19089	  1.22815	 -0.04459	  1.26584	705.49902	 24.10	
 20.392	-92.440	  0.99896	  0.40662	  0.46748	 -0.19399	  1.23483	 -0.04258	  1.26793	705.48499	 24.10	
 20.392	-87.560	  1.00249	  0.46997	  0.40684	 -0.19589	  1.24100	 -0.04030	  1.27251	705.64899	 24.10	
 20.403	-82.668	  1.00116	  0.53195	  0.34562	 -0.19264	  1.23593	 -0.03767	  1.27298	705.65503	 24.10	
 20.394	-77.868	  0.99998	  0.59347	  0.28814	 -0.18345	  1.22343	 -0.03637	  1.27228	705.62097	 24.10	
 20.398	-72.996	  0.99921	  0.65670	  0.23130	 -0.17210	  1.20729	 -0.03869	  1.27111	705.71301	 24.10	
 20.413	-68.100	  1.00164	  0.72195	  0.17713	 -0.15879	  1.18894	 -0.03948	  1.27643	705.60699	 24.10	
 20.403	-63.259	  0.99919	  0.78122	  0.12705	 -0.13758	  1.15819	 -0.03994	  1.27232	705.62299	 24.10	
 20.400	-58.396	  0.99826	  0.84062	  0.08019	 -0.11454	  1.12477	 -0.04295	  1.27144	705.71600	 24.10	
 20.410	-53.489	  1.00129	  0.90096	  0.03465	 -0.08890	  1.09035	 -0.03905	  1.27661	705.77899	 24.10	
 20.408	-48.628	  0.99767	  0.95140	 -0.00493	 -0.05799	  1.04427	 -0.04261	  1.27115	705.60602	 24.10	
 20.396	-43.773	  1.00275	  1.00617	 -0.04064	 -0.02248	  1.00024	 -0.04227	  1.27583	705.64001	 24.10	
 20.392	-38.938	  1.01043	  1.05977	 -0.07411	  0.01598	  0.95574	 -0.04222	  1.28506	705.70300	 24.10	
 20.397	-34.097	  1.00836	  1.09913	 -0.10376	  0.05688	  0.89858	 -0.04152	  1.28171	705.78101	 24.10	
 20.405	-29.165	  1.00798	  1.13732	 -0.12967	  0.10187	  0.83985	 -0.04054	  1.28179	705.77002	 24.10	
 20.401	-24.295	  1.00348	  1.16312	 -0.14898	  0.15117	  0.77518	 -0.04022	  1.27452	705.54199	 24.10	
 20.392	-19.504	  1.00920	  1.19487	 -0.16818	  0.20278	  0.71796	 -0.04061	  1.28068	705.72498	 24.10	
 20.410	-14.577	  1.00320	  1.20798	 -0.18128	  0.25550	  0.65136	 -0.03774	  1.27280	705.65503	 24.10	
 20.407	 -9.736	  1.00777	  1.22664	 -0.19132	  0.31461	  0.58979	 -0.03792	  1.27676	705.76703	 24.10	
 20.401	 -4.847	  1.01076	  1.23798	 -0.19721	  0.37430	  0.52774	 -0.03703	  1.27877	705.70203	 24.10	
 20.400	  0.000	  1.00874	  1.23796	 -0.19815	  0.43372	  0.46521	 -0.03670	  1.27457	705.69098	 24.10	
 20.401	  4.847	  1.00821	  1.23546	 -0.19785	  0.49547	  0.40319	 -0.03728	  1.27311	705.61298	 24.10	
 20.407	  9.736	  1.01287	  1.23285	 -0.19190	  0.56005	  0.34581	 -0.03921	  1.27705	705.56201	 24.10	
 20.410	 14.577	  1.01139	  1.21694	 -0.18173	  0.62210	  0.28850	 -0.04115	  1.27413	705.67499	 24.10	
 20.392	 19.504	  1.01402	  1.19965	 -0.16725	  0.68683	  0.23370	 -0.04225	  1.27456	705.80603	 24.10	
 20.401	 24.295	  1.01905	  1.18185	 -0.15188	  0.75020	  0.18330	 -0.04433	  1.27878	705.62299	 24.10	
 20.405	 29.165	  1.01655	  1.14857	 -0.13122	  0.80804	  0.13370	 -0.04826	  1.27489	705.67902	 24.10	
 20.397	 34.097	  1.01728	  1.11201	 -0.10474	  0.86754	  0.08774	 -0.05303	  1.27396	705.66498	 24.10	
 20.392	 38.938	  1.02190	  1.07496	 -0.07647	  0.92457	  0.04665	 -0.05692	  1.27669	705.73901	 24.10	
 20.396	 43.773	  1.02378	  1.03241	 -0.04436	  0.97703	  0.00935	 -0.05879	  1.27689	705.75000	 24.10	
 20.408	 48.628	  1.02253	  0.98270	 -0.00905	  1.02458	 -0.02718	 -0.06165	  1.27521	705.74200	 24.10	
 20.410	 53.489	  1.01981	  0.92654	  0.03080	  1.06547	 -0.05904	 -0.05987	  1.27049	705.63800	 24.10	
 20.400	 58.396	  1.02323	  0.87269	  0.07536	  1.10735	 -0.08521	 -0.05977	  1.27274	705.62299	 24.10	
 20.403	 63.259	  1.02802	  0.81750	  0.12235	  1.14464	 -0.10859	 -0.06089	  1.27627	705.75098	 24.10	
 20.413	 68.100	  1.02782	  0.75702	  0.17275	  1.17084	 -0.12577	 -0.06121	  1.27392	705.65198	 24.10	
 20.398	 72.996	  1.02932	  0.69587	  0.22702	  1.19492	 -0.14152	 -0.06370	  1.27483	705.63202	 24.10	
 20.394	 77.868	  1.02694	  0.63074	  0.28306	  1.20768	 -0.15121	 -0.06400	  1.26983	705.73102	 24.10	
 20.403	 82.668	  1.02889	  0.57062	  0.34030	  1.22140	 -0.16016	 -0.06571	  1.27192	705.52197	 24.10	
 20.392	 87.560	  1.03107	  0.50873	  0.40242	  1.22769	 -0.16209	 -0.06356	  1.27224	705.52301	 24.10	
 20.392	 92.440	  1.03507	  0.44736	  0.46658	  1.23049	 -0.16134	 -0.06172	  1.27546	705.60999	 24.10	
 20.403	 97.332	  1.03441	  0.38716	  0.52964	  1.22485	 -0.15719	 -0.06026	  1.27398	705.66199	 24.10	
 20.394	102.132	  1.03731	  0.33175	  0.59383	  1.21673	 -0.14883	 -0.05834	  1.27712	705.62903	 24.10	
 20.398	107.004	  1.04052	  0.27653	  0.65998	  1.20342	 -0.13627	 -0.05750	  1.28021	705.63800	 24.10	
 20.413	111.900	  1.03721	  0.22151	  0.72028	  1.17726	 -0.12176	 -0.05693	  1.27538	705.60602	 24.10	
 20.403	116.741	  1.03732	  0.17092	  0.78223	  1.15013	 -0.10210	 -0.05668	  1.27619	705.71002	 24.10	
 20.400	121.604	  1.03445	  0.12246	  0.84092	  1.11475	 -0.08022	 -0.05822	  1.27252	705.63000	 24.10	
 20.410	126.511	  1.03118	  0.07783	  0.89607	  1.07286	 -0.05258	 -0.05961	  1.26946	705.70203	 24.10	
 20.408	131.372	  1.03664	  0.03837	  0.95468	  1.03477	 -0.02064	 -0.05788	  1.27508	705.58398	 24.10	
 20.396	136.227	  1.04381	  0.00015	  1.01191	  0.99299	  0.01329	 -0.05608	  1.28370	705.63000	 24.10	
 20.392	141.062	  1.04054	 -0.03241	  1.05563	  0.93855	  0.05162	 -0.05589	  1.28130	705.70203	 24.10	
 20.397	145.903	  1.03135	 -0.06257	  1.08907	  0.87684	  0.09172	 -0.05226	  1.27016	705.64001	 24.10	
 20.405	150.835	  1.03224	 -0.08909	  1.12744	  0.81844	  0.13835	 -0.05020	  1.27214	705.62598	 24.10	
 20.401	155.705	  1.04188	 -0.11319	  1.17056	  0.76573	  0.18797	 -0.05191	  1.28477	705.65997	 24.10	
 20.392	160.496	  1.04017	 -0.13060	  1.19420	  0.70421	  0.23874	 -0.05143	  1.28323	705.58600	 24.10	
 20.410	165.423	  1.03261	 -0.14568	  1.20710	  0.63553	  0.29209	 -0.05264	  1.27655	705.64398	 24.10	
 20.407	170.264	  1.02782	 -0.15567	  1.21736	  0.57006	  0.34804	 -0.05370	  1.27170	705.82098	 24.10	
 20.401	175.153	  1.03125	 -0.16262	  1.23021	  0.50953	  0.40810	 -0.05233	  1.27691	705.77197	 24.10	
  0.141	 45.000	  1.28287	  0.68764	  0.66413	  0.68006	  0.68412	  0.00750	  1.27327	705.67200	 24.10	
  4.001	128.691	  1.28630	  0.59110	  0.75198	  0.77811	  0.57640	  0.00325	  1.28013	705.57599	 24.10	
  4.002	 76.995	  1.28244	  0.71303	  0.62015	  0.80622	  0.54722	  0.00071	  1.27676	705.67102	 24.10	
  4.002	 25.892	  1.27398	  0.81308	  0.52055	  0.71732	  0.61617	  0.00155	  1.26957	705.59497	 24.10	
  4.002	-25.892	  1.27936	  0.81345	  0.52535	  0.58981	  0.74994	  0.00109	  1.27589	705.75098	 24.10	
  4.002	-76.995	  1.27774	  0.70594	  0.61929	  0.51706	  0.83380	 -0.00009	  1.27365	705.72400	 24.10	
  4.001	-128.691	  1.29121	  0.58834	  0.75574	  0.54772	  0.81065	  0.00181	  1.28564	705.69598	 24.10	
  4.000	180.000	  1.28534	  0.53848	  0.81277	  0.65751	  0.68692	  0.00418	  1.27906	705.67102	 24.10	
  8.000	180.000	  1.26985	  0.36750	  0.95816	  0.63452	  0.66320	 -0.01011	  1.28820	705.64899	 24.10	
  7.991	-152.370	  1.25083	  0.39025	  0.90698	  0.48873	  0.79793	 -0.00966	  1.27076	705.76398	 24.10	
  7.997	-124.550	  1.25674	  0.47791	  0.80794	  0.38886	  0.92039	 -0.01282	  1.27949	705.65698	 24.10	
  8.006	-96.837	  1.24589	  0.60303	  0.65995	  0.34082	  0.96836	 -0.01853	  1.27081	705.74799	 24.10	
  7.988	-69.228	  1.25367	  0.75409	  0.52057	  0.35820	  0.95547	 -0.01792	  1.27902	705.81702	 24.10	
  7.997	-41.563	  1.24711	  0.87723	  0.40458	  0.42857	  0.86327	 -0.01660	  1.27275	705.84601	 24.10	
  8.008	-13.821	  1.25943	  0.96219	  0.34608	  0.55674	  0.73372	 -0.01438	  1.28434	705.80402	 24.10	
  8.008	 13.821	  1.25700	  0.96231	  0.34288	  0.70074	  0.58453	 -0.01426	  1.27929	705.81799	 24.10	
  7.997	 41.563	  1.24934	  0.88483	  0.40089	  0.83097	  0.45840	 -0.01503	  1.26857	705.73901	 24.10	
  7.988	 69.228	  1.25626	  0.76381	  0.51628	  0.92492	  0.38617	 -0.01522	  1.27347	705.69598	 24.10	
  8.006	 96.837	  1.25155	  0.61444	  0.65772	  0.94118	  0.37054	 -0.01693	  1.26759	705.75500	 24.10	
  7.997	124.550	  1.25303	  0.48512	  0.80031	  0.88701	  0.41623	 -0.01339	  1.26891	705.66199	 24.10	
  7.991	152.370	  1.25235	  0.39608	  0.90577	  0.77004	  0.51643	 -0.01065	  1.26903	705.67700	 24.10	
 12.009	161.059	  1.20656	  0.20906	  1.03677	  0.73351	  0.46596	 -0.02984	  1.27117	705.81000	 24.10	
 12.013	142.081	  1.20434	  0.27154	  0.95495	  0.87245	  0.34218	 -0.03361	  1.26827	705.74402	 24.10	
 12.006	123.113	  1.20915	  0.37243	  0.83736	  0.98387	  0.25456	 -0.03647	  1.27174	705.72498	 24.10	
 12.007	104.200	  1.20479	  0.49969	  0.68916	  1.04593	  0.20178	 -0.03842	  1.26796	705.80103	 24.10	
 11.989	 85.301	  1.20991	  0.64914	  0.53961	  1.06273	  0.19184	 -0.04102	  1.27405	705.76398	 24.10	
 12.013	 66.294	  1.20104	  0.79429	  0.39526	  1.01628	  0.22045	 -0.03967	  1.26722	705.74799	 24.10	
 12.012	 47.388	  1.21383	  0.93647	  0.28318	  0.93717	  0.29474	 -0.03922	  1.28363	705.79498	 24.10	
 11.990	 28.440	  1.20851	  1.03163	  0.20200	  0.80676	  0.40123	 -0.03466	  1.28196	705.66498	 24.10	
 11.991	  9.464	  1.19964	  1.07594	  0.16068	  0.65452	  0.53402	 -0.03559	  1.27459	705.68799	 24.10	
 11.991	 -9.464	  1.19287	  1.06803	  0.16140	  0.50216	  0.68141	 -0.03446	  1.26933	705.76501	 24.10	
 11.990	-28.440	  1.19298	  1.01459	  0.20321	  0.36773	  0.83097	 -0.03574	  1.27388	705.72803	 24.10	
 12.012	-47.388	  1.19388	  0.91511	  0.28455	  0.26228	  0.95764	 -0.04063	  1.27499	705.87598	 24.10	
 12.013	-66.294	  1.19450	  0.78068	  0.40118	  0.19173	  1.04718	 -0.04042	  1.27595	705.68597	 24.10	
 11.989	-85.301	  1.19381	  0.62920	  0.54201	  0.16285	  1.08391	 -0.04405	  1.27295	705.75000	 24.10	
 12.007	-104.200	  1.19939	  0.48383	  0.69557	  0.17185	  1.07541	 -0.04220	  1.27719	705.80603	 24.10	
 12.006	-123.113	  1.19711	  0.35522	  0.83884	  0.22295	  1.00752	 -0.03726	  1.27327	705.67102	 24.10	
 12.013	-142.081	  1.19833	  0.26066	  0.95716	  0.31396	  0.89750	 -0.03241	  1.27117	705.79498	 24.10	
 12.009	-161.059	  1.20983	  0.20336	  1.04357	  0.44010	  0.76438	 -0.03111	  1.28043	705.63702	 24.10	
 16.000	180.000	  1.13298	  0.02412	  1.15478	  0.52727	  0.55368	 -0.05192	  1.27232	705.70599	 24.10	
 15.990	-165.604	  1.12906	  0.03351	  1.13426	  0.38445	  0.70041	 -0.05102	  1.27061	705.71899	 24.10	
 16.002	-151.165	  1.12437	  0.07902	  1.07249	  0.26039	  0.84425	 -0.05022	  1.26961	705.62097	 24.10	
 16.002	-136.836	  1.11780	  0.15001	  0.97408	  0.15881	  0.96892	 -0.05029	  1.26475	705.77002	 24.10	
 15.995	-122.439	  1.11906	  0.24416	  0.85337	  0.08099	  1.07150	 -0.05326	  1.26854	705.74701	 24.10	
 15.993	-107.966	  1.11589	  0.36138	  0.71047	  0.02845	  1.13853	 -0.05336	  1.26713	705.78900	 24.10	
 16.005	-93.629	  1.11442	  0.49504	  0.56230	  0.00194	  1.16988	 -0.05324	  1.27017	705.78900	 24.20	
 15.992	-79.234	  1.11134	  0.64103	  0.41767	  0.01134	  1.15761	 -0.05054	  1.26782	705.71899	 24.10	
 16.009	-64.774	  1.11512	  0.79110	  0.28795	  0.04633	  1.11423	 -0.04911	  1.27315	705.66803	 24.10	
 15.997	-50.364	  1.10753	  0.91985	  0.17100	  0.10616	  1.02109	 -0.05213	  1.26487	705.81000	 24.20	
 15.997	-36.045	  1.11803	  1.04028	  0.08703	  0.19769	  0.91442	 -0.04887	  1.27560	705.83502	 24.10	
 16.000	-21.597	  1.12348	  1.12500	  0.02849	  0.31460	  0.77913	 -0.04615	  1.28110	705.76398	 24.20	
 16.003	 -7.169	  1.11554	  1.15802	 -0.00338	  0.44698	  0.62358	 -0.04462	  1.26920	705.79602	 24.10	
 16.003	  7.169	  1.12029	  1.16345	 -0.00486	  0.59388	  0.47892	 -0.04860	  1.27066	705.81000	 24.20	
 16.000	 21.597	  1.12523	  1.12932	  0.02288	  0.74450	  0.34311	 -0.05091	  1.27421	705.72803	 24.20	
 15.997	 36.045	  1.12337	  1.04963	  0.07867	  0.88096	  0.22382	 -0.05794	  1.26831	705.75897	 24.20	
 15.997	 50.364	  1.12877	  0.94602	  0.16191	  1.00228	  0.12940	 -0.06450	  1.27200	705.74799	 24.20	
 16.009	 64.774	  1.13053	  0.81205	  0.27216	  1.09023	  0.06310	 -0.06124	  1.26981	705.88000	 24.20	
 15.992	 79.234	  1.13263	  0.66516	  0.40632	  1.14171	  0.02749	 -0.06519	  1.26971	705.71301	 24.20	
 16.005	 93.629	  1.13507	  0.51741	  0.55320	  1.15404	  0.02038	 -0.06297	  1.27042	705.78101	 24.20	
 15.993	107.966	  1.14042	  0.37976	  0.70766	  1.12778	  0.04464	 -0.06034	  1.27429	705.88000	 24.20	
 15.995	122.439	  1.13533	  0.25264	  0.84961	  1.05410	  0.09386	 -0.05862	  1.26857	705.93597	 24.20	
 16.002	136.836	  1.14279	  0.15606	  0.98241	  0.95736	  0.17671	 -0.05505	  1.27798	705.83099	 24.10	
 16.002	151.165	  1.14261	  0.08014	  1.08039	  0.82718	  0.28052	 -0.04974	  1.27962	705.74402	 24.20	
 15.990	165.604	  1.14195	  0.03755	  1.14142	  0.68045	  0.41254	 -0.05314	  1.27831	706.01703	 24.10	
 20.003	168.362	  1.04708	 -0.13353	  1.21573	  0.60544	  0.34111	 -0.05440	  1.28141	705.99298	 24.10	
 20.008	156.764	  1.04959	 -0.09750	  1.16856	  0.75347	  0.21324	 -0.05341	  1.28131	705.97998	 24.10	
 20.000	145.147	  1.05158	 -0.04108	  1.08951	  0.89393	  0.10195	 -0.05368	  1.28104	705.85699	 24.10	
 19.995	133.545	  1.05073	  0.03901	  0.97955	  1.01407	  0.01280	 -0.05746	  1.27845	705.97198	 24.20	
 20.009	121.926	  1.05087	  0.13613	  0.85052	  1.11430	 -0.05979	 -0.05900	  1.27970	705.82599	 24.20	
 20.005	110.327	  1.05204	  0.25325	  0.70767	  1.18457	 -0.10726	 -0.05882	  1.28004	705.84302	 24.20	
 19.989	 98.733	  1.04191	  0.38159	  0.55393	  1.21119	 -0.13298	 -0.05957	  1.26884	705.74103	 24.20	
 19.999	 87.075	  1.04328	  0.52277	  0.40783	  1.22146	 -0.14118	 -0.06423	  1.27191	705.75897	 24.20	
 19.992	 75.457	  1.04453	  0.67126	  0.27124	  1.20108	 -0.12571	 -0.06302	  1.27685	705.64899	 24.20	
 20.009	 63.844	  1.03217	  0.80616	  0.14464	  1.13491	 -0.08886	 -0.06085	  1.26593	705.81799	 24.20	
 19.989	 52.269	  1.03098	  0.93883	  0.03891	  1.05081	 -0.03071	 -0.06139	  1.26877	705.73401	 24.20	
 19.999	 40.602	  1.03118	  1.05610	 -0.04696	  0.94111	  0.05012	 -0.05757	  1.27362	705.86499	 24.20	
 20.004	 29.051	  1.02763	  1.14382	 -0.11304	  0.80845	  0.15012	 -0.04901	  1.27294	705.88202	 24.20	
 20.005	 17.433	  1.02562	  1.20456	 -0.15575	  0.66579	  0.26989	 -0.04233	  1.27577	705.84100	 24.20	
 20.006	  5.780	  1.01883	  1.22721	 -0.17652	  0.51600	  0.40215	 -0.04054	  1.27069	705.67102	 24.20	
 20.006	 -5.780	  1.01987	  1.22784	 -0.17617	  0.37302	  0.54712	 -0.03972	  1.27450	705.73602	 24.20	
 20.005	-17.433	  1.01404	  1.19134	 -0.15436	  0.23688	  0.69322	 -0.04064	  1.27180	705.73297	 24.20	
 20.004	-29.051	  1.01371	  1.12732	 -0.11128	  0.11796	  0.83638	 -0.04265	  1.27303	705.67999	 24.20	
 19.999	-40.602	  1.01440	  1.03568	 -0.04451	  0.02041	  0.96623	 -0.04232	  1.27378	705.68597	 24.20	
 19.989	-52.269	  1.01287	  0.91529	  0.04212	 -0.06184	  1.07696	 -0.04315	  1.27405	705.62299	 24.20	
 20.009	-63.844	  1.00793	  0.77604	  0.14744	 -0.11986	  1.15353	 -0.04267	  1.26711	705.75500	 24.20	
 19.992	-75.457	  1.00804	  0.62972	  0.27149	 -0.15771	  1.20578	 -0.03951	  1.26592	705.91602	 24.20	
 19.999	-87.075	  1.01167	  0.48482	  0.40916	 -0.17433	  1.23105	 -0.04212	  1.26879	705.80298	 24.20	
 19.989	-98.733	  1.01664	  0.34483	  0.55790	 -0.16884	  1.22772	 -0.04465	  1.27288	705.87598	 24.20	
 20.005	-110.327	  1.01632	  0.21618	  0.70387	 -0.14093	  1.18788	 -0.04836	  1.27020	705.72400	 24.20	
 20.009	-121.926	  1.01848	  0.10417	  0.84576	 -0.09188	  1.12001	 -0.04942	  1.27108	705.85999	 24.20	
 19.995	-133.545	  1.02259	  0.01132	  0.97467	 -0.01998	  1.02360	 -0.05252	  1.27212	705.74103	 24.20	
 20.000	-145.147	  1.02430	 -0.05871	  1.07880	  0.07283	  0.90212	 -0.05216	  1.27031	705.83099	 24.20	
 20.008	-156.764	  1.02716	 -0.11182	  1.15755	  0.18377	  0.76460	 -0.05105	  1.27012	705.78699	 24.20	
 20.003	-168.362	  1.03065	 -0.14005	  1.20414	  0.31184	  0.62007	 -0.05047	  1.26942	705.75598	 24.20	
 20.000	180.000	  1.03124	 -0.14598	  1.21576	  0.45139	  0.47381	 -0.04843	  1.26492	705.78699	 24.20	
