FileType=PCF
NHL=14
Date=10/23/18	10:33:28
Facility=APL
Serial=16328-1
Customer=NASA
NP=6
Mach=0.050000
Calibration=1:1
CalPts=490
TstPts=95
PortNumbering=AP Standard
Units=Torr C m/s kg/m^3 deg mm 
Theta[deg]	Phi[deg]	P1[Torr]	P2[Torr]	P3[Torr]	P4[Torr]	P5[Torr]	P6[Torr]	Pt[Torr]	Ps[Abs,Torr]	Ts[C]	
  0.000	  0.000	  1.21906	  0.65218	  0.64749	  0.64376	  0.65765	  0.00603	  1.21148	709.90002	 15.00	
  1.691	128.401	  1.21756	  0.62722	  0.66460	  0.67244	  0.62189	  0.00570	  1.20889	709.89301	 15.00	
  1.692	 77.194	  1.21857	  0.66495	  0.62785	  0.68458	  0.60920	  0.00546	  1.21045	709.96997	 15.00	
  1.699	 26.182	  1.21955	  0.70494	  0.58827	  0.65314	  0.63559	  0.00537	  1.21272	709.92401	 15.00	
  1.699	-26.182	  1.21939	  0.70297	  0.58833	  0.60695	  0.68113	  0.00336	  1.21290	709.95398	 15.00	
  1.692	-77.194	  1.21655	  0.66288	  0.61945	  0.58156	  0.70852	  0.00349	  1.20965	709.87000	 15.00	
  1.691	-128.401	  1.21755	  0.62097	  0.66442	  0.59032	  0.69910	  0.00377	  1.21013	709.95502	 15.00	
  1.700	180.000	  1.21932	  0.60578	  0.68836	  0.63404	  0.65743	  0.00386	  1.21106	709.92999	 15.00	
  3.400	180.000	  1.22194	  0.54008	  0.75236	  0.62908	  0.65370	  0.00150	  1.21519	709.94897	 15.00	
  3.388	-152.325	  1.21985	  0.54977	  0.73541	  0.57395	  0.70905	  0.00067	  1.21368	709.85498	 15.00	
  3.397	-124.529	  1.21587	  0.58148	  0.69289	  0.53216	  0.75105	 -0.00027	  1.21169	709.86200	 15.00	
  3.399	-96.763	  1.21351	  0.63005	  0.63692	  0.51135	  0.77115	 -0.00079	  1.20962	709.89203	 15.00	
  3.394	-69.283	  1.21452	  0.68502	  0.58476	  0.51677	  0.76444	 -0.00140	  1.21122	709.84302	 15.00	
  3.400	-41.398	  1.21138	  0.73414	  0.53933	  0.54453	  0.72872	 -0.00072	  1.20859	709.91602	 15.00	
  3.401	-14.021	  1.21713	  0.76639	  0.51869	  0.59241	  0.68085	  0.00018	  1.21269	709.86298	 15.00	
  3.401	 14.021	  1.21452	  0.76788	  0.51710	  0.64944	  0.62298	  0.00206	  1.20908	709.87097	 15.00	
  3.400	 41.398	  1.21535	  0.74288	  0.54159	  0.70313	  0.57569	  0.00269	  1.20866	709.87097	 15.00	
  3.394	 69.283	  1.21754	  0.69461	  0.58757	  0.73970	  0.54907	  0.00436	  1.20934	709.91101	 15.00	
  3.399	 96.763	  1.22130	  0.64129	  0.64362	  0.74877	  0.54625	  0.00363	  1.21402	709.92700	 15.00	
  3.397	124.529	  1.21624	  0.58881	  0.69457	  0.72581	  0.56204	  0.00417	  1.20851	709.92499	 15.00	
  3.388	152.325	  1.21769	  0.55461	  0.73346	  0.68239	  0.59970	  0.00253	  1.21122	709.94000	 15.00	
  5.099	161.165	  1.21515	  0.48342	  0.79937	  0.68042	  0.58919	 -0.00265	  1.21271	709.97101	 15.00	
  5.109	142.013	  1.21366	  0.50851	  0.77012	  0.73523	  0.53916	 -0.00117	  1.21004	709.92401	 15.00	
  5.095	123.033	  1.21244	  0.55021	  0.72252	  0.77680	  0.50229	  0.00031	  1.20866	709.88702	 15.00	
  5.105	104.191	  1.21330	  0.60211	  0.66725	  0.80291	  0.48100	  0.00043	  1.20972	709.90900	 15.00	
  5.093	 85.207	  1.21180	  0.65943	  0.60635	  0.80538	  0.47466	 -0.00017	  1.20830	709.86798	 15.00	
  5.104	 66.290	  1.20867	  0.71782	  0.54789	  0.78776	  0.48489	 -0.00015	  1.20669	709.92401	 15.00	
  5.094	 47.331	  1.21386	  0.77248	  0.50433	  0.75521	  0.51703	 -0.00027	  1.21229	709.91901	 15.00	
  5.089	 28.397	  1.21115	  0.80892	  0.46703	  0.70205	  0.55941	 -0.00188	  1.21093	709.89203	 15.00	
  5.096	  9.576	  1.20945	  0.82687	  0.44861	  0.64278	  0.61306	 -0.00299	  1.21130	709.96301	 15.00	
  5.096	 -9.576	  1.20863	  0.82467	  0.44696	  0.58252	  0.67247	 -0.00527	  1.21162	709.97498	 15.00	
  5.089	-28.397	  1.20521	  0.79874	  0.46385	  0.52611	  0.72783	 -0.00493	  1.20905	709.86603	 15.00	
  5.094	-47.331	  1.20675	  0.76206	  0.49508	  0.48250	  0.77856	 -0.00656	  1.21022	709.98401	 15.00	
  5.104	-66.290	  1.20688	  0.70876	  0.54296	  0.45488	  0.81174	 -0.00701	  1.21061	709.89801	 15.00	
  5.093	-85.207	  1.20660	  0.64891	  0.59812	  0.44172	  0.82691	 -0.00764	  1.20965	709.93201	 15.00	
  5.105	-104.191	  1.20783	  0.59024	  0.65888	  0.44646	  0.82311	 -0.00658	  1.21018	709.94299	 15.00	
  5.095	-123.033	  1.20852	  0.53938	  0.71620	  0.46887	  0.79841	 -0.00542	  1.20968	709.98999	 15.00	
  5.109	-142.013	  1.20871	  0.49939	  0.76446	  0.50719	  0.75668	 -0.00511	  1.20931	709.89203	 15.00	
  5.099	-161.165	  1.20893	  0.47613	  0.79449	  0.55876	  0.70147	 -0.00437	  1.20742	709.87799	 15.00	
  5.100	180.000	  1.21323	  0.47166	  0.80883	  0.61911	  0.64601	 -0.00311	  1.21054	709.95099	 15.00	
  6.800	180.000	  1.20581	  0.40089	  0.86584	  0.61023	  0.63507	 -0.00946	  1.21264	709.97803	 15.00	
  6.796	-166.229	  1.20130	  0.40266	  0.85611	  0.55034	  0.69125	 -0.01175	  1.21015	709.98700	 15.10	
  6.808	-152.311	  1.20056	  0.41927	  0.83196	  0.49433	  0.74807	 -0.01236	  1.21175	709.87598	 15.00	
  6.795	-138.383	  1.19899	  0.44685	  0.79433	  0.44741	  0.79787	 -0.01177	  1.21086	709.83801	 15.10	
  6.792	-124.591	  1.19847	  0.48623	  0.74827	  0.41054	  0.83871	 -0.01306	  1.21136	709.93201	 15.10	
  6.787	-110.754	  1.19757	  0.53684	  0.69109	  0.38526	  0.86852	 -0.01422	  1.21187	709.92499	 15.10	
  6.800	-96.985	  1.19168	  0.58814	  0.63031	  0.36932	  0.88004	 -0.01511	  1.20709	709.92401	 15.10	
  6.800	-83.015	  1.19538	  0.64898	  0.57376	  0.37017	  0.88344	 -0.01415	  1.21101	709.98999	 15.10	
  6.787	-69.246	  1.19364	  0.70675	  0.51708	  0.38024	  0.86655	 -0.01519	  1.20956	709.97498	 15.10	
  6.792	-55.409	  1.19351	  0.76224	  0.46780	  0.40584	  0.83614	 -0.01380	  1.20831	709.92700	 15.10	
  6.795	-41.617	  1.19588	  0.81126	  0.42920	  0.44135	  0.79724	 -0.01329	  1.20974	709.87598	 15.10	
  6.808	-27.689	  1.19610	  0.84944	  0.39727	  0.48696	  0.74588	 -0.01234	  1.20939	709.89801	 15.10	
  6.796	-13.771	  1.19830	  0.87474	  0.38067	  0.54089	  0.69077	 -0.01192	  1.21075	709.87598	 15.10	
  6.800	  0.000	  1.19980	  0.88496	  0.37503	  0.60063	  0.63200	 -0.00978	  1.21024	709.89203	 15.10	
  6.796	 13.771	  1.20243	  0.88138	  0.38253	  0.66071	  0.57575	 -0.00855	  1.21144	709.82800	 15.10	
  6.808	 27.689	  1.20175	  0.86072	  0.40053	  0.71919	  0.52163	 -0.00780	  1.21007	709.94800	 15.10	
  6.795	 41.617	  1.20359	  0.82560	  0.43316	  0.77276	  0.47695	 -0.00626	  1.21014	709.86298	 15.10	
  6.792	 55.409	  1.20501	  0.78068	  0.47499	  0.81604	  0.44147	 -0.00498	  1.21119	709.93298	 15.10	
  6.787	 69.246	  1.20657	  0.72710	  0.52564	  0.84842	  0.41915	 -0.00527	  1.21161	709.89801	 15.10	
  6.800	 83.015	  1.20632	  0.66935	  0.58168	  0.86371	  0.40667	 -0.00448	  1.21109	709.89203	 15.10	
  6.800	 96.985	  1.20471	  0.60870	  0.63972	  0.86334	  0.40675	 -0.00487	  1.20970	709.95898	 15.10	
  6.787	110.754	  1.20587	  0.55313	  0.69901	  0.84852	  0.42057	 -0.00573	  1.21041	710.00800	 15.10	
  6.792	124.591	  1.20575	  0.50358	  0.75227	  0.81988	  0.44488	 -0.00577	  1.21100	709.93201	 15.10	
  6.795	138.383	  1.20496	  0.46210	  0.79856	  0.77882	  0.47855	 -0.00655	  1.20920	710.54700	 15.10	
  6.808	152.311	  1.20513	  0.43056	  0.83470	  0.72778	  0.52461	 -0.00834	  1.21037	710.56000	 15.10	
  6.796	166.229	  1.20708	  0.40997	  0.85896	  0.67129	  0.57772	 -0.00956	  1.21407	710.44202	 15.10	
  8.491	168.704	  1.18462	  0.33389	  0.90709	  0.65498	  0.55694	 -0.01769	  1.20455	710.30200	 15.10	
  8.502	157.493	  1.19127	  0.35265	  0.89437	  0.71800	  0.50488	 -0.01620	  1.21104	709.90100	 15.10	
  8.494	146.194	  1.18535	  0.37735	  0.85942	  0.77069	  0.45276	 -0.01427	  1.20306	710.49298	 15.10	
  8.495	135.039	  1.18767	  0.41497	  0.81986	  0.82047	  0.41363	 -0.01240	  1.20471	709.94800	 15.10	
  8.487	123.723	  1.18177	  0.45486	  0.76711	  0.85684	  0.37679	 -0.01281	  1.19910	710.47998	 15.10	
  8.492	112.575	  1.18773	  0.50864	  0.71518	  0.89086	  0.35450	 -0.01296	  1.20508	709.94098	 15.10	
  8.510	101.220	  1.19032	  0.56535	  0.65755	  0.91248	  0.33872	 -0.01157	  1.20812	709.77399	 15.10	
  8.500	 90.000	  1.19048	  0.62451	  0.59681	  0.91887	  0.33313	 -0.01123	  1.20884	709.85400	 15.10	
  8.510	 78.780	  1.19369	  0.68699	  0.53973	  0.91413	  0.33846	 -0.01131	  1.21201	709.83600	 15.10	
  8.492	 67.425	  1.19543	  0.74900	  0.48139	  0.89396	  0.35272	 -0.01237	  1.21457	709.82501	 15.10	
  8.487	 56.277	  1.18747	  0.79797	  0.42891	  0.85671	  0.37641	 -0.01107	  1.20729	709.85999	 15.10	
  8.495	 44.961	  1.18721	  0.84794	  0.38485	  0.81457	  0.41106	 -0.01211	  1.20904	709.91101	 15.10	
  8.494	 33.806	  1.18751	  0.88679	  0.35161	  0.76620	  0.45214	 -0.01400	  1.21042	709.92499	 15.10	
  8.502	 22.507	  1.18657	  0.91617	  0.32343	  0.70873	  0.50131	 -0.01549	  1.21100	709.90601	 15.10	
  8.491	 11.296	  1.18315	  0.93105	  0.30714	  0.64608	  0.55637	 -0.01563	  1.20925	709.87799	 15.10	
  8.500	  0.000	  1.17796	  0.93151	  0.29961	  0.58187	  0.61276	 -0.01773	  1.20529	709.88397	 15.10	
  8.491	-11.296	  1.18242	  0.92735	  0.30629	  0.52382	  0.67680	 -0.01928	  1.21046	709.80103	 15.10	
  8.502	-22.507	  1.18155	  0.90655	  0.31923	  0.46668	  0.73559	 -0.02071	  1.21117	710.32397	 15.10	
  8.494	-33.806	  1.18040	  0.87267	  0.34456	  0.41771	  0.78985	 -0.02063	  1.21061	709.94800	 15.10	
  8.495	-44.961	  1.17982	  0.83044	  0.37850	  0.37386	  0.83863	 -0.02222	  1.21011	709.89001	 15.10	
  8.487	-56.277	  1.17840	  0.77975	  0.42185	  0.34060	  0.87805	 -0.02161	  1.20887	709.89301	 15.10	
  8.492	-67.425	  1.18177	  0.72650	  0.47162	  0.31656	  0.91108	 -0.02428	  1.21261	709.88397	 15.10	
  8.510	-78.780	  1.18184	  0.66558	  0.52663	  0.29967	  0.93123	 -0.02397	  1.21337	710.07001	 15.10	
  8.500	-90.000	  1.17968	  0.60402	  0.58553	  0.29521	  0.93556	 -0.02337	  1.21063	709.90100	 15.10	
  8.510	-101.220	  1.18041	  0.54632	  0.64597	  0.30057	  0.93102	 -0.02342	  1.21059	709.97302	 15.10	
  8.492	-112.575	  1.17946	  0.48891	  0.70657	  0.31768	  0.90983	 -0.02323	  1.20908	709.94800	 15.10	
  8.487	-123.723	  1.18198	  0.44189	  0.76252	  0.34385	  0.88158	 -0.02111	  1.21039	709.89502	 15.10	
  8.495	-135.039	  1.18456	  0.39941	  0.81595	  0.37997	  0.84354	 -0.02013	  1.21192	710.43103	 15.10	
  8.494	-146.194	  1.18433	  0.36681	  0.85640	  0.42470	  0.79342	 -0.01912	  1.21003	709.94098	 15.10	
  8.502	-157.493	  1.18582	  0.34341	  0.88965	  0.47766	  0.73893	 -0.01936	  1.21035	709.95502	 15.20	
  8.491	-168.704	  1.17958	  0.32786	  0.90385	  0.53108	  0.67481	 -0.01872	  1.20202	709.82501	 15.10	
  8.500	180.000	  1.19201	  0.32803	  0.91942	  0.59715	  0.62059	 -0.01706	  1.21359	709.87097	 15.20	
 10.200	180.000	  1.17261	  0.25560	  0.96793	  0.58002	  0.60317	 -0.02635	  1.21348	709.78998	 15.10	
 10.191	-170.497	  1.16867	  0.25561	  0.96114	  0.51711	  0.66283	 -0.02784	  1.21067	709.81403	 15.20	
 10.210	-161.034	  1.16550	  0.26487	  0.94200	  0.45748	  0.72147	 -0.02890	  1.20996	710.05402	 15.20	
 10.194	-151.526	  1.16589	  0.28535	  0.91550	  0.40395	  0.78025	 -0.02979	  1.21099	710.36401	 15.20	
 10.190	-142.105	  1.16448	  0.31306	  0.87790	  0.35439	  0.83393	 -0.02815	  1.21123	710.09497	 15.20	
 10.215	-132.646	  1.16045	  0.34677	  0.83059	  0.31140	  0.87889	 -0.02902	  1.20863	709.82800	 15.20	
 10.203	-123.092	  1.16040	  0.39182	  0.77793	  0.27627	  0.92056	 -0.03094	  1.21035	709.76501	 15.20	
 10.192	-113.678	  1.15701	  0.43904	  0.72058	  0.25049	  0.94793	 -0.03257	  1.20847	710.51801	 15.20	
 10.208	-104.249	  1.16041	  0.49442	  0.66308	  0.23352	  0.97170	 -0.03348	  1.21232	710.22699	 15.20	
 10.210	-94.801	  1.15423	  0.55111	  0.59774	  0.22241	  0.97945	 -0.03301	  1.20685	710.32098	 15.20	
 10.210	-85.199	  1.15365	  0.61183	  0.53642	  0.22178	  0.97846	 -0.03338	  1.20664	710.55298	 15.20	
 10.208	-75.751	  1.15567	  0.67489	  0.47819	  0.23025	  0.96948	 -0.03314	  1.20898	709.81201	 15.20	
 10.192	-66.322	  1.15702	  0.73430	  0.42503	  0.24708	  0.94857	 -0.03305	  1.20949	710.45300	 15.20	
 10.203	-56.908	  1.15929	  0.79241	  0.37578	  0.27135	  0.91922	 -0.03300	  1.21166	709.88202	 15.20	
 10.215	-47.354	  1.15804	  0.84540	  0.33016	  0.30392	  0.87810	 -0.03195	  1.20921	709.86298	 15.20	
 10.190	-37.895	  1.16192	  0.89290	  0.29427	  0.34606	  0.83215	 -0.02974	  1.21199	710.11102	 15.20	
 10.194	-28.474	  1.16135	  0.92901	  0.26670	  0.39365	  0.77792	 -0.02954	  1.20946	710.36902	 15.20	
 10.210	-18.966	  1.16435	  0.96001	  0.24462	  0.44687	  0.72071	 -0.03019	  1.21188	710.51202	 15.20	
 10.191	 -9.503	  1.16335	  0.97594	  0.23247	  0.50359	  0.65966	 -0.02798	  1.21009	710.39301	 15.20	
 10.200	  0.000	  1.16390	  0.98363	  0.22906	  0.56556	  0.59820	 -0.02558	  1.20915	709.86798	 15.20	
 10.191	  9.503	  1.16727	  0.98246	  0.23539	  0.62888	  0.54089	 -0.02477	  1.21105	710.44202	 15.20	
 10.210	 18.966	  1.16556	  0.96675	  0.24731	  0.68943	  0.48177	 -0.02429	  1.20841	710.39801	 15.20	
 10.194	 28.474	  1.16730	  0.94249	  0.27025	  0.75151	  0.42997	 -0.02327	  1.20806	710.42499	 15.20	
 10.190	 37.895	  1.16745	  0.90837	  0.29983	  0.80513	  0.38355	 -0.02078	  1.20741	710.40100	 15.20	
 10.215	 47.354	  1.16942	  0.86665	  0.33606	  0.85587	  0.34341	 -0.01951	  1.20904	710.40100	 15.20	
 10.203	 56.908	  1.16897	  0.81522	  0.38138	  0.89672	  0.30984	 -0.01817	  1.20688	710.42102	 15.20	
 10.192	 66.322	  1.17139	  0.76119	  0.43322	  0.93171	  0.28576	 -0.01910	  1.20886	710.43701	 15.20	
 10.208	 75.751	  1.18036	  0.70780	  0.49168	  0.96064	  0.27065	 -0.01991	  1.21696	710.42297	 15.20	
 10.210	 85.199	  1.17633	  0.64307	  0.55069	  0.96981	  0.26117	 -0.01860	  1.21188	709.93500	 15.20	
 10.210	 94.801	  1.17622	  0.58130	  0.61205	  0.96977	  0.26234	 -0.01898	  1.21167	710.20502	 15.20	
 10.208	104.249	  1.17433	  0.52135	  0.67257	  0.95826	  0.27112	 -0.01910	  1.20964	709.88202	 15.20	
 10.192	113.678	  1.17211	  0.46469	  0.73176	  0.93510	  0.28825	 -0.02148	  1.20805	710.46899	 15.20	
 10.203	123.092	  1.17448	  0.41517	  0.78880	  0.90620	  0.31385	 -0.02056	  1.21015	710.46399	 15.20	
 10.215	132.646	  1.17238	  0.36863	  0.83956	  0.86488	  0.34579	 -0.02113	  1.20760	710.43103	 15.20	
 10.190	142.105	  1.17232	  0.33110	  0.88349	  0.81683	  0.38656	 -0.02151	  1.20888	710.55499	 15.20	
 10.194	151.526	  1.17658	  0.30003	  0.92284	  0.76566	  0.43344	 -0.02315	  1.21324	710.48700	 15.20	
 10.210	161.034	  1.17524	  0.27654	  0.94823	  0.70480	  0.48578	 -0.02551	  1.21389	710.41498	 15.20	
 10.191	170.497	  1.17091	  0.26108	  0.96148	  0.64154	  0.54143	 -0.02592	  1.21036	710.47699	 15.20	
 11.899	171.783	  1.14788	  0.18802	  1.00605	  0.62341	  0.51971	 -0.03559	  1.20916	710.46399	 15.20	
 11.890	163.610	  1.15147	  0.20133	  0.99578	  0.68741	  0.46502	 -0.03489	  1.21265	710.48199	 15.20	
 11.889	155.445	  1.15138	  0.22108	  0.97249	  0.74637	  0.41034	 -0.03409	  1.21111	710.54199	 15.20	
 11.909	147.299	  1.15021	  0.24664	  0.94016	  0.80311	  0.36024	 -0.03133	  1.20922	710.51398	 15.20	
 11.902	139.148	  1.15157	  0.28197	  0.90111	  0.85682	  0.31704	 -0.02939	  1.20997	710.51703	 15.20	
 11.894	130.867	  1.15318	  0.32251	  0.85435	  0.90517	  0.27872	 -0.03012	  1.21096	710.46899	 15.20	
 11.897	122.732	  1.14972	  0.36581	  0.80026	  0.94115	  0.24572	 -0.03016	  1.20809	710.45599	 15.20	
 11.903	114.597	  1.15351	  0.41791	  0.74692	  0.97585	  0.22197	 -0.03091	  1.21190	710.52802	 15.20	
 11.893	106.346	  1.15556	  0.47489	  0.68694	  0.99966	  0.20432	 -0.02957	  1.21331	710.51703	 15.20	
 11.892	 98.155	  1.15186	  0.53269	  0.62249	  1.00945	  0.19421	 -0.02845	  1.20970	710.50403	 15.20	
 11.900	 90.000	  1.14978	  0.59074	  0.55996	  1.01255	  0.18775	 -0.02779	  1.20754	710.49597	 15.20	
 11.892	 81.845	  1.15281	  0.65454	  0.50121	  1.00962	  0.19194	 -0.02686	  1.21129	710.49597	 15.20	
 11.893	 73.654	  1.15109	  0.71557	  0.44112	  0.99202	  0.20330	 -0.02792	  1.20964	710.49298	 15.20	
 11.903	 65.403	  1.15241	  0.77582	  0.38631	  0.96948	  0.22024	 -0.02888	  1.21241	710.56897	 15.20	
 11.897	 57.268	  1.15153	  0.83116	  0.33640	  0.93580	  0.24555	 -0.02687	  1.21198	710.52502	 15.20	
 11.894	 49.133	  1.14762	  0.88045	  0.28988	  0.89335	  0.27525	 -0.02752	  1.21003	710.42297	 15.20	
 11.902	 40.852	  1.14647	  0.92541	  0.25038	  0.84441	  0.31483	 -0.02845	  1.20987	709.86200	 15.20	
 11.909	 32.701	  1.14694	  0.96375	  0.21931	  0.79176	  0.35878	 -0.03031	  1.21130	710.48798	 15.20	
 11.889	 24.555	  1.14217	  0.99031	  0.19270	  0.73074	  0.40707	 -0.03190	  1.20770	710.53101	 15.20	
 11.890	 16.390	  1.14291	  1.01384	  0.17388	  0.67061	  0.46145	 -0.03412	  1.21071	710.44800	 15.20	
 11.899	  8.217	  1.13887	  1.02324	  0.16074	  0.60630	  0.51700	 -0.03473	  1.20801	710.45001	 15.20	
 11.900	  0.000	  1.14094	  1.02766	  0.15742	  0.54505	  0.57928	 -0.03584	  1.21071	710.41699	 15.20	
 11.899	 -8.217	  1.13838	  1.01916	  0.16055	  0.48235	  0.64001	 -0.03640	  1.20888	710.43903	 15.20	
 11.890	-16.390	  1.13465	  1.00174	  0.16837	  0.42257	  0.69849	 -0.03743	  1.20697	710.55499	 15.20	
 11.889	-24.555	  1.13295	  0.97513	  0.18637	  0.36927	  0.75579	 -0.03806	  1.20578	710.47101	 15.20	
 11.909	-32.701	  1.13349	  0.94354	  0.21152	  0.32003	  0.81197	 -0.03768	  1.20640	710.42603	 15.20	
 11.902	-40.852	  1.13318	  0.90360	  0.24191	  0.27540	  0.86512	 -0.03980	  1.20801	710.49298	 15.20	
 11.894	-49.133	  1.13226	  0.85484	  0.27973	  0.23653	  0.91057	 -0.04076	  1.20804	710.45300	 15.20	
 11.897	-57.268	  1.13429	  0.80299	  0.32455	  0.20529	  0.95178	 -0.04108	  1.20995	710.48798	 15.20	
 11.903	-65.403	  1.13279	  0.74392	  0.37431	  0.18011	  0.98227	 -0.04314	  1.20930	710.38800	 15.20	
 11.893	-73.654	  1.13414	  0.68577	  0.42693	  0.16254	  1.00604	 -0.04394	  1.21111	710.45300	 15.20	
 11.892	-81.845	  1.13170	  0.62267	  0.48625	  0.15213	  1.01872	 -0.04383	  1.20790	710.38202	 15.20	
 11.900	-90.000	  1.13279	  0.56285	  0.54667	  0.14905	  1.02488	 -0.04245	  1.20968	710.45502	 15.30	
 11.892	-98.155	  1.13339	  0.50345	  0.60800	  0.15409	  1.02056	 -0.04279	  1.20974	710.47198	 15.30	
 11.893	-106.346	  1.13364	  0.44564	  0.66985	  0.16556	  1.00731	 -0.04367	  1.20995	710.46899	 15.20	
 11.903	-114.597	  1.13239	  0.39059	  0.72911	  0.18475	  0.98247	 -0.04314	  1.20688	710.45001	 15.30	
 11.897	-122.732	  1.13488	  0.34332	  0.78843	  0.21179	  0.95252	 -0.03962	  1.20968	710.40503	 15.30	
 11.894	-130.867	  1.13375	  0.29839	  0.84101	  0.24304	  0.91432	 -0.03820	  1.20759	710.44202	 15.30	
 11.902	-139.148	  1.13408	  0.25944	  0.88889	  0.28222	  0.86707	 -0.03728	  1.20601	710.47998	 15.30	
 11.909	-147.299	  1.13916	  0.23022	  0.93222	  0.32937	  0.81817	 -0.03891	  1.20969	710.43201	 15.30	
 11.889	-155.445	  1.13920	  0.20796	  0.96211	  0.38167	  0.76083	 -0.03837	  1.20690	710.41803	 15.30	
 11.890	-163.610	  1.14455	  0.19389	  0.98951	  0.43847	  0.70446	 -0.03874	  1.21089	710.40698	 15.30	
 11.899	-171.783	  1.14129	  0.18283	  1.00095	  0.49591	  0.64071	 -0.03687	  1.20604	710.42603	 15.30	
 11.900	180.000	  1.14161	  0.18097	  1.00629	  0.55788	  0.57800	 -0.03673	  1.20546	710.35797	 15.30	
 13.600	180.000	  1.11942	  0.11061	  1.05144	  0.53801	  0.55937	 -0.04556	  1.20966	710.44202	 15.30	
 13.608	-172.853	  1.11386	  0.10962	  1.04390	  0.47534	  0.61593	 -0.04779	  1.20696	710.41803	 15.30	
 13.611	-165.583	  1.11354	  0.11740	  1.03040	  0.41502	  0.67894	 -0.04872	  1.20786	710.40997	 15.30	
 13.601	-158.353	  1.11007	  0.13083	  1.00767	  0.35762	  0.73793	 -0.04881	  1.20618	710.45502	 15.30	
 13.609	-151.210	  1.11344	  0.15088	  0.98275	  0.30697	  0.79902	 -0.04829	  1.21214	710.42297	 15.30	
 13.611	-143.999	  1.11228	  0.17706	  0.94622	  0.25711	  0.85440	 -0.04772	  1.21353	710.40900	 15.30	
 13.601	-136.825	  1.10829	  0.20883	  0.90062	  0.21450	  0.90168	 -0.04765	  1.21020	710.46899	 15.30	
 13.596	-129.640	  1.10534	  0.24717	  0.84963	  0.17592	  0.94449	 -0.04790	  1.20809	710.39099	 15.30	
 13.611	-122.431	  1.10438	  0.29016	  0.79545	  0.14399	  0.98372	 -0.04920	  1.20885	710.43201	 15.30	
 13.604	-115.211	  1.10404	  0.33877	  0.73797	  0.11697	  1.01537	 -0.05119	  1.20970	710.39801	 15.30	
 13.595	-108.042	  1.10196	  0.38943	  0.67780	  0.09844	  1.03737	 -0.05187	  1.20790	710.38202	 15.30	
 13.607	-100.793	  1.10365	  0.44816	  0.61759	  0.08526	  1.05567	 -0.05099	  1.21050	710.44202	 15.30	
 13.601	-93.617	  1.10283	  0.50431	  0.55535	  0.07656	  1.06398	 -0.05128	  1.21068	710.49500	 15.30	
 13.601	-86.383	  1.10383	  0.56729	  0.49418	  0.07565	  1.06403	 -0.04995	  1.21134	710.47699	 15.30	
 13.607	-79.207	  1.10050	  0.62631	  0.43274	  0.08185	  1.05227	 -0.04944	  1.20749	710.48199	 15.30	
 13.595	-71.958	  1.10694	  0.69158	  0.37935	  0.09480	  1.04165	 -0.04981	  1.21395	710.48499	 15.30	
 13.604	-64.789	  1.10106	  0.74749	  0.32321	  0.11318	  1.01110	 -0.05034	  1.20713	710.37701	 15.30	
 13.611	-57.569	  1.10265	  0.80745	  0.27477	  0.13834	  0.98002	 -0.04881	  1.20781	710.45300	 15.30	
 13.596	-50.360	  1.10414	  0.86143	  0.23108	  0.16808	  0.94244	 -0.04948	  1.20864	710.48199	 15.30	
 13.601	-43.175	  1.10508	  0.91139	  0.19158	  0.20369	  0.89809	 -0.04894	  1.20883	710.42499	 15.30	
 13.611	-36.001	  1.10459	  0.95334	  0.15956	  0.24522	  0.84758	 -0.04819	  1.20667	710.47198	 15.30	
 13.609	-28.790	  1.10528	  0.98996	  0.13371	  0.29293	  0.79309	 -0.04673	  1.20624	710.39099	 15.30	
 13.601	-21.647	  1.10558	  1.02074	  0.11038	  0.34456	  0.73472	 -0.04537	  1.20628	710.46301	 15.30	
 13.611	-14.417	  1.11056	  1.04661	  0.09673	  0.40037	  0.67802	 -0.04612	  1.21052	710.40997	 15.30	
 13.608	 -7.147	  1.10880	  1.05825	  0.08803	  0.45965	  0.61569	 -0.04573	  1.20730	710.42499	 15.30	
 13.600	  0.000	  1.11218	  1.06687	  0.08602	  0.52177	  0.55584	 -0.04350	  1.20962	710.38000	 15.30	
 13.608	  7.147	  1.10771	  1.06065	  0.08870	  0.58037	  0.49490	 -0.04355	  1.20444	710.43903	 15.30	
 13.611	 14.417	  1.11198	  1.05313	  0.09978	  0.64606	  0.43801	 -0.04321	  1.20691	710.47400	 15.30	
 13.601	 21.647	  1.11551	  1.03710	  0.11620	  0.71003	  0.38336	 -0.04152	  1.20970	710.41498	 15.30	
 13.609	 28.790	  1.11900	  1.01304	  0.14020	  0.77010	  0.33539	 -0.04007	  1.21107	710.43903	 15.30	
 13.611	 36.001	  1.12050	  0.98054	  0.16668	  0.82770	  0.28801	 -0.03903	  1.21232	710.44000	 15.30	
 13.601	 43.175	  1.11996	  0.93817	  0.20073	  0.87851	  0.24568	 -0.03733	  1.21037	710.34802	 15.30	
 13.596	 50.360	  1.11990	  0.89103	  0.24047	  0.92485	  0.20973	 -0.03646	  1.20846	710.46301	 15.30	
 13.611	 57.569	  1.12137	  0.83977	  0.28681	  0.96506	  0.17998	 -0.03652	  1.20836	710.39001	 15.30	
 13.604	 64.789	  1.12086	  0.78286	  0.33503	  0.99797	  0.15423	 -0.03625	  1.20739	710.45502	 15.30	
 13.595	 71.958	  1.12115	  0.72392	  0.38900	  1.02333	  0.13554	 -0.03750	  1.20647	710.41803	 15.30	
 13.607	 79.207	  1.12308	  0.66379	  0.44657	  1.04310	  0.12305	 -0.03699	  1.20891	710.40900	 15.30	
 13.601	 86.383	  1.12388	  0.60324	  0.50559	  1.05323	  0.11703	 -0.03648	  1.20869	710.43903	 15.30	
 13.601	 93.617	  1.12312	  0.54073	  0.56688	  1.05287	  0.11753	 -0.03702	  1.20778	710.35901	 15.30	
 13.607	100.793	  1.12545	  0.48183	  0.63008	  1.04808	  0.12366	 -0.03756	  1.21070	710.43903	 15.30	
 13.595	108.042	  1.12636	  0.42358	  0.69269	  1.03264	  0.13666	 -0.03823	  1.21125	710.44501	 15.30	
 13.604	115.211	  1.12294	  0.36886	  0.75032	  1.00550	  0.15492	 -0.03915	  1.20731	710.39801	 15.30	
 13.611	122.431	  1.12425	  0.31819	  0.80899	  0.97561	  0.17907	 -0.03987	  1.20920	710.42499	 15.30	
 13.596	129.640	  1.12270	  0.27182	  0.86176	  0.93484	  0.21022	 -0.03918	  1.20736	710.41302	 15.30	
 13.601	136.825	  1.12341	  0.23201	  0.91028	  0.89042	  0.24639	 -0.03782	  1.20851	710.38202	 15.30	
 13.611	143.999	  1.12539	  0.19726	  0.95562	  0.84130	  0.28884	 -0.03854	  1.21090	710.39899	 15.30	
 13.609	151.210	  1.12227	  0.16676	  0.98778	  0.78396	  0.33370	 -0.03997	  1.20843	710.38300	 15.30	
 13.601	158.353	  1.12255	  0.14464	  1.01596	  0.72547	  0.38587	 -0.04226	  1.20952	710.43402	 15.30	
 13.611	165.583	  1.12000	  0.12632	  1.03512	  0.66328	  0.43938	 -0.04332	  1.20826	710.47400	 15.40	
 13.608	172.853	  1.11808	  0.11352	  1.04693	  0.59863	  0.49772	 -0.04397	  1.20765	710.46600	 15.30	
 15.298	173.587	  1.08806	  0.04656	  1.08270	  0.57679	  0.47383	 -0.05141	  1.20777	710.39301	 15.40	
 15.291	167.167	  1.09332	  0.05581	  1.07650	  0.64087	  0.41728	 -0.05131	  1.21256	710.44501	 15.40	
 15.307	160.676	  1.09228	  0.07157	  1.05745	  0.70240	  0.36161	 -0.05002	  1.21029	710.35797	 15.40	
 15.300	154.261	  1.09076	  0.08950	  1.03154	  0.75996	  0.30814	 -0.04867	  1.20863	710.40698	 15.40	
 15.288	147.854	  1.09107	  0.11449	  0.99930	  0.81730	  0.25896	 -0.04692	  1.20751	710.39899	 15.40	
 15.293	141.428	  1.09387	  0.14899	  0.96217	  0.87280	  0.21820	 -0.04501	  1.20941	710.39001	 15.40	
 15.299	134.985	  1.09185	  0.18382	  0.91601	  0.92040	  0.17834	 -0.04547	  1.20676	710.32898	 15.40	
 15.305	128.583	  1.09459	  0.22420	  0.86965	  0.96653	  0.14379	 -0.04724	  1.20998	710.39301	 15.40	
 15.309	122.142	  1.09488	  0.26874	  0.81535	  1.00565	  0.11299	 -0.04704	  1.21032	710.37402	 15.40	
 15.304	115.711	  1.09509	  0.31789	  0.75823	  1.03694	  0.08924	 -0.04696	  1.21028	710.29401	 15.40	
 15.297	109.291	  1.09377	  0.37173	  0.69829	  1.05987	  0.07244	 -0.04503	  1.20862	710.36700	 15.40	
 15.293	102.897	  1.09655	  0.42973	  0.63784	  1.08068	  0.05781	 -0.04437	  1.21145	710.39899	 15.40	
 15.293	 96.458	  1.09527	  0.48792	  0.57509	  1.08948	  0.05004	 -0.04431	  1.21005	710.38501	 15.40	
 15.300	 90.000	  1.09170	  0.54704	  0.51154	  1.08913	  0.04637	 -0.04474	  1.20662	710.34302	 15.40	
 15.293	 83.542	  1.09149	  0.60853	  0.45198	  1.08434	  0.04940	 -0.04444	  1.20704	710.37201	 15.40	
 15.293	 77.103	  1.09236	  0.67095	  0.39383	  1.07257	  0.05848	 -0.04480	  1.20785	710.36102	 15.40	
 15.297	 70.709	  1.09306	  0.73189	  0.33919	  1.05375	  0.07198	 -0.04551	  1.20867	710.35303	 15.40	
 15.304	 64.289	  1.09148	  0.78879	  0.28703	  1.02691	  0.09034	 -0.04432	  1.20840	710.39398	 15.40	
 15.309	 57.858	  1.09047	  0.84467	  0.23911	  0.99353	  0.11549	 -0.04460	  1.20802	710.35101	 15.40	
 15.305	 51.417	  1.08859	  0.89509	  0.19321	  0.95143	  0.14415	 -0.04537	  1.20678	710.32001	 15.40	
 15.299	 45.015	  1.08584	  0.94126	  0.15462	  0.90427	  0.18019	 -0.04550	  1.20442	710.33698	 15.40	
 15.293	 38.572	  1.09007	  0.98846	  0.12010	  0.85774	  0.21980	 -0.04686	  1.21045	710.33698	 15.40	
 15.288	 32.146	  1.08499	  1.02110	  0.08909	  0.79968	  0.26236	 -0.04805	  1.20685	710.39301	 15.40	
 15.300	 25.739	  1.08618	  1.05205	  0.06619	  0.74377	  0.31179	 -0.04930	  1.20935	710.34198	 15.40	
 15.307	 19.324	  1.08398	  1.07426	  0.04697	  0.68319	  0.36241	 -0.05068	  1.20881	710.34302	 15.40	
 15.291	 12.833	  1.08348	  1.09012	  0.03400	  0.62203	  0.41723	 -0.05121	  1.20907	710.37701	 15.40	
 15.298	  6.413	  1.07919	  1.09558	  0.02579	  0.55818	  0.47359	 -0.05065	  1.20575	710.37201	 15.40	
 15.300	  0.000	  1.07780	  1.09774	  0.02123	  0.49606	  0.53212	 -0.05109	  1.20631	710.35901	 15.40	
 15.298	 -6.413	  1.08042	  1.09606	  0.02314	  0.43838	  0.59358	 -0.05226	  1.21107	710.35901	 15.40	
 15.291	-12.833	  1.07895	  1.08219	  0.02884	  0.37773	  0.65273	 -0.05159	  1.20947	710.45599	 15.40	
 15.307	-19.324	  1.07853	  1.06218	  0.04318	  0.32333	  0.71359	 -0.05240	  1.20996	710.28101	 15.40	
 15.300	-25.739	  1.07595	  1.03428	  0.05842	  0.26892	  0.76981	 -0.05206	  1.20916	710.39001	 15.40	
 15.288	-32.146	  1.07700	  1.00237	  0.08292	  0.22178	  0.82762	 -0.05346	  1.21099	710.30200	 15.40	
 15.293	-38.572	  1.07427	  0.96070	  0.11103	  0.17705	  0.87758	 -0.05513	  1.20923	710.34497	 15.40	
 15.299	-45.015	  1.07350	  0.91461	  0.14725	  0.13864	  0.92702	 -0.05452	  1.20874	710.39801	 15.40	
 15.305	-51.417	  1.07207	  0.86547	  0.18487	  0.10636	  0.96884	 -0.05448	  1.20752	710.25800	 15.40	
 15.309	-57.858	  1.06990	  0.81004	  0.22505	  0.07425	  1.00600	 -0.05386	  1.20678	710.29303	 15.40	
 15.304	-64.289	  1.07162	  0.75279	  0.27550	  0.05151	  1.03964	 -0.05313	  1.20890	710.31000	 15.40	
 15.297	-70.709	  1.07135	  0.69343	  0.32676	  0.03463	  1.06282	 -0.05216	  1.20851	710.33502	 15.40	
 15.293	-77.103	  1.06871	  0.63357	  0.38096	  0.02038	  1.08092	 -0.05407	  1.20715	710.37500	 15.40	
 15.293	-83.542	  1.07177	  0.57369	  0.44035	  0.01512	  1.09377	 -0.05370	  1.20983	710.27301	 15.40	
 15.300	-90.000	  1.07033	  0.51256	  0.50070	  0.01245	  1.09699	 -0.05484	  1.20907	710.29401	 15.40	
 15.293	-96.458	  1.06941	  0.45357	  0.56056	  0.01605	  1.09347	 -0.05623	  1.20843	710.45300	 15.40	
 15.293	-102.897	  1.06997	  0.39576	  0.62247	  0.02525	  1.08247	 -0.05765	  1.20765	710.31201	 15.40	
 15.297	-109.291	  1.07395	  0.34478	  0.68570	  0.04029	  1.06993	 -0.05937	  1.21295	710.27802	 15.40	
 15.304	-115.711	  1.06949	  0.29108	  0.74188	  0.05938	  1.03916	 -0.05820	  1.20640	710.32397	 15.40	
 15.309	-122.142	  1.07084	  0.24367	  0.79916	  0.08213	  1.01047	 -0.05727	  1.20779	710.36700	 15.40	
 15.305	-128.583	  1.07189	  0.20378	  0.85308	  0.11690	  0.97099	 -0.05577	  1.20594	710.36902	 15.40	
 15.299	-134.985	  1.07440	  0.16655	  0.90395	  0.15220	  0.93003	 -0.05520	  1.20713	710.29303	 15.40	
 15.293	-141.428	  1.07902	  0.13175	  0.95029	  0.18951	  0.88524	 -0.05562	  1.21140	710.30798	 15.40	
 15.288	-147.854	  1.07634	  0.10295	  0.98801	  0.23655	  0.82846	 -0.05596	  1.20639	710.43701	 15.40	
 15.300	-154.261	  1.07907	  0.07836	  1.02244	  0.28371	  0.77375	 -0.05496	  1.20874	710.36700	 15.40	
 15.307	-160.676	  1.08326	  0.06470	  1.05142	  0.34064	  0.71703	 -0.05550	  1.21018	710.36102	 15.40	
 15.291	-167.167	  1.08085	  0.05142	  1.06584	  0.39348	  0.65442	 -0.05420	  1.20567	710.33398	 15.40	
 15.298	-173.587	  1.08139	  0.04388	  1.07674	  0.45195	  0.59199	 -0.05396	  1.20403	710.38800	 15.40	
 15.300	180.000	  1.08647	  0.04063	  1.08565	  0.51385	  0.53283	 -0.05225	  1.20888	710.37500	 15.40	
 17.000	180.000	  1.05572	 -0.00981	  1.11643	  0.49704	  0.51389	 -0.05534	  1.20940	710.38300	 15.40	
 16.990	-174.179	  1.05290	 -0.01463	  1.11362	  0.43505	  0.57166	 -0.05719	  1.21023	710.43103	 15.40	
 17.009	-168.383	  1.05074	 -0.00231	  1.10038	  0.37971	  0.63281	 -0.05666	  1.20814	710.38800	 15.40	
 17.000	-162.596	  1.04815	  0.00687	  1.08267	  0.32420	  0.69025	 -0.05729	  1.20805	710.40198	 15.40	
 16.990	-156.759	  1.04706	  0.02230	  1.05984	  0.27214	  0.74919	 -0.05575	  1.20843	710.44800	 15.50	
 16.995	-150.919	  1.04688	  0.04090	  1.03249	  0.22268	  0.80709	 -0.05844	  1.21105	710.38800	 15.40	
 16.988	-145.161	  1.04323	  0.06442	  0.99475	  0.17700	  0.85734	 -0.05956	  1.20784	710.36700	 15.40	
 17.014	-139.343	  1.03899	  0.09053	  0.95174	  0.13296	  0.90594	 -0.05966	  1.20617	710.35901	 15.40	
 17.007	-133.546	  1.04021	  0.12704	  0.90771	  0.09822	  0.95537	 -0.05775	  1.20917	710.36401	 15.40	
 17.001	-127.699	  1.03831	  0.16257	  0.85766	  0.06298	  0.99646	 -0.05791	  1.20848	710.47101	 15.50	
 17.006	-121.937	  1.03842	  0.20285	  0.80525	  0.03319	  1.03390	 -0.05860	  1.20974	710.42102	 15.50	
 17.002	-116.134	  1.03598	  0.24840	  0.74734	  0.00898	  1.06286	 -0.05970	  1.20827	710.35901	 15.50	
 17.001	-110.310	  1.03544	  0.29717	  0.68852	 -0.01166	  1.08903	 -0.05993	  1.20905	710.37402	 15.50	
 16.988	-104.517	  1.03553	  0.34828	  0.62990	 -0.02612	  1.10683	 -0.05896	  1.20917	710.41803	 15.50	
 17.008	-98.662	  1.03593	  0.40336	  0.57029	 -0.03570	  1.12016	 -0.05787	  1.21008	710.34003	 15.50	
 16.996	-92.909	  1.03506	  0.46052	  0.51012	 -0.04011	  1.12505	 -0.05502	  1.20860	710.35797	 15.50	
 16.996	-87.091	  1.03667	  0.51813	  0.45169	 -0.04459	  1.12782	 -0.05372	  1.21137	710.32800	 15.50	
 17.012	-81.253	  1.03489	  0.57676	  0.39035	 -0.04372	  1.11932	 -0.05337	  1.20976	710.35901	 15.50	
 16.988	-75.483	  1.03471	  0.63695	  0.33515	 -0.03187	  1.10501	 -0.05233	  1.20824	710.40198	 15.50	
 17.001	-69.690	  1.03559	  0.69622	  0.28443	 -0.01764	  1.08687	 -0.05154	  1.20909	710.34198	 15.50	
 17.002	-63.866	  1.03732	  0.75601	  0.23529	  0.00183	  1.06200	 -0.05147	  1.20917	710.30103	 15.50	
 17.006	-58.063	  1.03950	  0.81365	  0.18741	  0.02331	  1.03142	 -0.05250	  1.21104	710.37201	 15.50	
 17.001	-52.301	  1.03721	  0.86459	  0.14747	  0.05221	  0.99281	 -0.05439	  1.20755	710.39398	 15.50	
 17.007	-46.454	  1.03979	  0.91598	  0.11046	  0.08375	  0.95207	 -0.05556	  1.20985	710.40997	 15.50	
 17.014	-40.657	  1.03915	  0.96129	  0.07637	  0.12081	  0.90458	 -0.05538	  1.20751	710.32898	 15.50	
 16.988	-34.839	  1.04124	  1.00343	  0.04528	  0.16088	  0.85370	 -0.05484	  1.20830	710.40198	 15.50	
 16.995	-29.081	  1.04186	  1.03893	  0.02128	  0.20452	  0.80173	 -0.05461	  1.20832	710.39301	 15.50	
 16.990	-23.241	  1.04204	  1.06855	  0.00342	  0.25537	  0.74483	 -0.05147	  1.20680	710.39099	 15.50	
 17.000	-17.404	  1.04369	  1.09227	 -0.01292	  0.30755	  0.68651	 -0.05336	  1.20696	710.40503	 15.50	
 17.009	-11.617	  1.04372	  1.11080	 -0.02453	  0.36017	  0.62869	 -0.05391	  1.20757	710.41699	 15.50	
 16.990	 -5.821	  1.04398	  1.12127	 -0.02844	  0.41744	  0.57052	 -0.05306	  1.20621	710.39899	 15.50	
 17.000	  0.000	  1.04630	  1.12799	 -0.03088	  0.47786	  0.51124	 -0.05382	  1.20785	710.39899	 15.50	
 16.990	  5.821	  1.04776	  1.12802	 -0.02893	  0.53699	  0.45573	 -0.05308	  1.20925	710.35901	 15.50	
 17.009	 11.617	  1.04928	  1.11955	 -0.01826	  0.59943	  0.39982	 -0.05329	  1.20786	710.36700	 15.50	
 17.000	 17.404	  1.05047	  1.10643	 -0.00834	  0.65812	  0.34615	 -0.05334	  1.20772	710.40900	 15.50	
 16.990	 23.241	  1.05002	  1.08431	  0.00936	  0.71726	  0.29521	 -0.05123	  1.20571	710.36700	 15.50	
 16.995	 29.081	  1.05336	  1.06080	  0.03145	  0.77664	  0.24875	 -0.05170	  1.20775	710.40100	 15.50	
 16.988	 34.839	  1.05547	  1.02890	  0.05703	  0.83334	  0.20488	 -0.05123	  1.20823	710.34998	 15.50	
 17.014	 40.657	  1.05521	  0.99041	  0.08899	  0.88400	  0.16659	 -0.05189	  1.20656	710.31799	 15.50	
 17.007	 46.454	  1.05681	  0.94828	  0.12088	  0.93312	  0.12847	 -0.05098	  1.20704	710.31299	 15.50	
 17.001	 52.301	  1.05884	  0.90097	  0.15703	  0.97845	  0.09212	 -0.05183	  1.20888	710.35901	 15.50	
 17.006	 58.063	  1.06212	  0.85250	  0.20150	  1.01989	  0.06657	 -0.05074	  1.21196	710.31799	 15.50	
 17.002	 63.866	  1.05865	  0.79552	  0.24496	  1.04989	  0.04124	 -0.05048	  1.20818	710.31299	 15.50	
 17.001	 69.690	  1.06251	  0.73946	  0.29500	  1.08063	  0.01975	 -0.05154	  1.21209	710.35797	 15.50	
 16.988	 75.483	  1.05980	  0.67911	  0.34969	  1.09690	  0.01029	 -0.05003	  1.20779	710.30103	 15.50	
 17.012	 81.253	  1.06055	  0.61983	  0.40356	  1.11177	 -0.00174	 -0.05078	  1.20750	710.30103	 15.50	
 16.996	 87.091	  1.05764	  0.55646	  0.45883	  1.11821	 -0.01058	 -0.05014	  1.20604	710.34497	 15.50	
 16.996	 92.909	  1.06143	  0.49708	  0.51913	  1.12340	 -0.01341	 -0.04956	  1.20984	710.34302	 15.50	
 17.008	 98.662	  1.05784	  0.43661	  0.57711	  1.11466	 -0.01056	 -0.04992	  1.20612	710.35797	 15.50	
 16.988	104.517	  1.06108	  0.38098	  0.64006	  1.10521	 -0.00038	 -0.04899	  1.20901	710.37701	 15.50	
 17.001	110.310	  1.06019	  0.32711	  0.70048	  1.08539	  0.01543	 -0.05038	  1.20779	710.30103	 15.50	
 17.002	116.134	  1.05975	  0.27544	  0.75844	  1.06023	  0.03256	 -0.05027	  1.20780	710.26898	 15.50	
 17.006	121.937	  1.06045	  0.22672	  0.81677	  1.02950	  0.05661	 -0.05229	  1.20844	710.24298	 15.50	
 17.001	127.699	  1.06039	  0.18274	  0.86849	  0.99204	  0.08357	 -0.05232	  1.20837	710.35101	 15.50	
 17.007	133.546	  1.05838	  0.14173	  0.91886	  0.94813	  0.11616	 -0.05203	  1.20722	710.23102	 15.50	
 17.014	139.343	  1.05582	  0.10438	  0.96214	  0.89862	  0.15170	 -0.05116	  1.20487	710.29401	 15.50	
 16.988	145.161	  1.06167	  0.07655	  1.00770	  0.85189	  0.19710	 -0.05216	  1.21150	710.23102	 15.50	
 16.995	150.919	  1.05960	  0.05163	  1.03957	  0.79583	  0.24185	 -0.05181	  1.20901	710.21100	 15.50	
 16.990	156.759	  1.05713	  0.02638	  1.06808	  0.73579	  0.28944	 -0.05361	  1.20813	710.20502	 15.50	
 17.000	162.596	  1.05986	  0.01269	  1.09207	  0.68004	  0.34351	 -0.05480	  1.21189	710.27301	 15.50	
 17.009	168.383	  1.05614	  0.00023	  1.10464	  0.61686	  0.39864	 -0.05395	  1.20777	710.32098	 15.50	
 16.990	174.179	  1.05409	 -0.01006	  1.11314	  0.55527	  0.45308	 -0.05417	  1.20724	710.25800	 15.50	
 18.709	174.675	  1.01668	 -0.08006	  1.14388	  0.52626	  0.42344	 -0.05117	  1.21030	710.25598	 15.50	
 18.703	169.441	  1.01628	 -0.07318	  1.13530	  0.58629	  0.36622	 -0.05208	  1.20863	710.32098	 15.50	
 18.691	164.085	  1.01788	 -0.05820	  1.11904	  0.64716	  0.31472	 -0.05260	  1.20710	710.34998	 15.50	
 18.706	158.818	  1.02429	 -0.04277	  1.10458	  0.70978	  0.26536	 -0.05227	  1.21221	710.30499	 15.50	
 18.695	153.537	  1.02174	 -0.02321	  1.07642	  0.76625	  0.21564	 -0.05037	  1.20864	710.32001	 15.50	
 18.704	148.255	  1.02544	  0.00246	  1.04660	  0.82503	  0.17118	 -0.04885	  1.21149	710.34998	 15.50	
 18.698	142.952	  1.02449	  0.03117	  1.00849	  0.87663	  0.13049	 -0.04873	  1.20950	710.28802	 15.50	
 18.699	137.625	  1.02081	  0.06329	  0.96372	  0.92356	  0.09164	 -0.04907	  1.20507	710.32599	 15.50	
 18.705	132.343	  1.02420	  0.09907	  0.92043	  0.97287	  0.05675	 -0.04938	  1.20987	710.30200	 15.60	
 18.713	127.067	  1.01782	  0.13838	  0.86369	  1.00913	  0.02540	 -0.04897	  1.20191	710.29401	 15.50	
 18.700	121.794	  1.01800	  0.18122	  0.81254	  1.04377	  0.00147	 -0.04746	  1.20087	710.18402	 15.50	
 18.698	116.504	  1.01940	  0.22826	  0.75687	  1.07685	 -0.02235	 -0.04758	  1.20295	710.30200	 15.50	
 18.707	111.165	  1.02095	  0.27954	  0.69827	  1.10357	 -0.04027	 -0.04708	  1.20396	710.32800	 15.50	
 18.690	105.863	  1.02046	  0.33126	  0.64129	  1.12221	 -0.05314	 -0.04584	  1.20378	710.32001	 15.50	
 18.696	100.583	  1.02137	  0.38570	  0.57985	  1.13727	 -0.06647	 -0.04637	  1.20526	710.31799	 15.50	
 18.700	 95.309	  1.02167	  0.44274	  0.52073	  1.14583	 -0.07232	 -0.04537	  1.20592	710.24799	 15.50	
 18.700	 90.000	  1.02308	  0.50180	  0.46257	  1.14789	 -0.07373	 -0.04669	  1.20660	710.37701	 15.60	
 18.700	 84.691	  1.02391	  0.56028	  0.40352	  1.14630	 -0.07416	 -0.04855	  1.20875	710.31201	 15.60	
 18.696	 79.417	  1.02300	  0.62002	  0.34710	  1.13485	 -0.06518	 -0.04863	  1.20677	710.32800	 15.60	
 18.690	 74.137	  1.02192	  0.67800	  0.29168	  1.11880	 -0.05765	 -0.05043	  1.20701	710.33398	 15.50	
 18.707	 68.835	  1.02231	  0.73719	  0.24211	  1.09756	 -0.04051	 -0.05134	  1.20708	710.35101	 15.60	
 18.698	 63.496	  1.02153	  0.79482	  0.19089	  1.06914	 -0.02342	 -0.05135	  1.20772	710.19702	 15.60	
 18.700	 58.206	  1.01831	  0.84704	  0.14592	  1.03365	 -0.00000	 -0.05146	  1.20448	710.26398	 15.60	
 18.713	 52.933	  1.01984	  0.89956	  0.10312	  0.99850	  0.02502	 -0.05243	  1.20766	710.31598	 15.60	
 18.705	 47.657	  1.01649	  0.94722	  0.06426	  0.95312	  0.05538	 -0.05392	  1.20594	710.19897	 15.60	
 18.699	 42.375	  1.01779	  0.99186	  0.03027	  0.90765	  0.08989	 -0.05435	  1.20736	710.27197	 15.60	
 18.698	 37.048	  1.01690	  1.03185	 -0.00153	  0.85515	  0.12850	 -0.05388	  1.20786	710.25598	 15.60	
 18.704	 31.745	  1.01525	  1.06662	 -0.02848	  0.80090	  0.17002	 -0.05237	  1.20800	710.31799	 15.60	
 18.695	 26.463	  1.01361	  1.09476	 -0.05161	  0.74376	  0.21444	 -0.05182	  1.20770	710.29303	 15.60	
 18.706	 21.182	  1.01189	  1.11789	 -0.07129	  0.68404	  0.26239	 -0.05228	  1.20690	710.29602	 15.60	
 18.691	 15.915	  1.01111	  1.13679	 -0.08663	  0.62546	  0.31257	 -0.05242	  1.20872	710.31598	 15.60	
 18.703	 10.559	  1.01110	  1.15106	 -0.09872	  0.56381	  0.36651	 -0.05145	  1.21132	710.31799	 15.60	
 18.709	  5.325	  1.01108	  1.15847	 -0.10636	  0.50355	  0.42168	 -0.05245	  1.21211	710.22101	 15.60	
 18.700	  0.000	  1.00694	  1.15430	 -0.10692	  0.44367	  0.47809	 -0.05210	  1.20712	710.32001	 15.60	
 18.709	 -5.325	  1.00400	  1.15018	 -0.10964	  0.38228	  0.53534	 -0.05216	  1.20732	710.29401	 15.60	
 18.703	-10.559	  1.00359	  1.13933	 -0.10262	  0.32591	  0.59407	 -0.05148	  1.20720	710.30103	 15.60	
 18.691	-15.915	  1.00365	  1.12296	 -0.09257	  0.27267	  0.65327	 -0.04942	  1.20728	710.32898	 15.60	
 18.706	-21.182	  1.00462	  1.10383	 -0.08036	  0.21917	  0.71278	 -0.04896	  1.21012	710.27802	 15.60	
 18.695	-26.463	  1.00307	  1.07547	 -0.06222	  0.17087	  0.76916	 -0.05053	  1.20928	710.28900	 15.60	
 18.704	-31.745	  1.00387	  1.04389	 -0.03916	  0.12586	  0.82585	 -0.05128	  1.21120	710.14502	 15.60	
 18.698	-37.048	  0.99623	  0.99862	 -0.01323	  0.08331	  0.87188	 -0.05192	  1.20270	710.25800	 15.60	
 18.699	-42.375	  0.99579	  0.95712	  0.01570	  0.04449	  0.92187	 -0.05167	  1.20358	710.20398	 15.60	
 18.705	-47.657	  0.99686	  0.91037	  0.05118	  0.00883	  0.96982	 -0.05093	  1.20608	710.30200	 15.60	
 18.713	-52.933	  0.99480	  0.85887	  0.08776	 -0.02183	  1.00964	 -0.04975	  1.20448	710.37701	 15.60	
 18.700	-58.206	  0.99453	  0.80515	  0.13043	 -0.04657	  1.04579	 -0.04940	  1.20467	710.33398	 15.60	
 18.698	-63.496	  0.99472	  0.74994	  0.17578	 -0.06851	  1.07809	 -0.04895	  1.20628	710.27002	 15.60	
 18.707	-68.835	  0.99547	  0.69321	  0.22427	 -0.08736	  1.10657	 -0.04638	  1.20836	710.24799	 15.60	
 18.690	-74.137	  0.99539	  0.63362	  0.27515	 -0.10209	  1.12705	 -0.04737	  1.20924	710.29401	 15.60	
 18.696	-79.417	  0.99282	  0.57324	  0.33007	 -0.11072	  1.13881	 -0.04731	  1.20677	710.25299	 15.60	
 18.700	-84.691	  0.98954	  0.51170	  0.38465	 -0.11670	  1.14472	 -0.04815	  1.20368	710.23999	 15.60	
 18.700	-90.000	  0.99047	  0.45365	  0.44301	 -0.11851	  1.14886	 -0.04947	  1.20437	710.25299	 15.60	
 18.700	-95.309	  0.98822	  0.39544	  0.50121	 -0.11488	  1.14425	 -0.05173	  1.20198	710.25098	 15.60	
 18.696	-100.583	  0.99293	  0.34032	  0.56470	 -0.10848	  1.14111	 -0.05250	  1.20693	710.26398	 15.60	
 18.690	-105.863	  0.99206	  0.28762	  0.62313	 -0.09670	  1.12628	 -0.05567	  1.20592	710.27301	 15.60	
 18.707	-111.165	  0.99218	  0.23734	  0.68196	 -0.08157	  1.10668	 -0.05679	  1.20567	710.31000	 15.60	
 18.698	-116.504	  0.99538	  0.18860	  0.74289	 -0.06244	  1.08335	 -0.05927	  1.20898	710.25098	 15.60	
 18.700	-121.794	  0.99666	  0.14411	  0.79899	 -0.03968	  1.05350	 -0.05839	  1.20994	710.30499	 15.60	
 18.713	-127.067	  0.99326	  0.10159	  0.85091	 -0.01173	  1.01284	 -0.05958	  1.20339	710.24597	 15.60	
 18.705	-132.343	  0.99447	  0.06558	  0.89969	  0.02121	  0.97178	 -0.05769	  1.20406	710.24799	 15.60	
 18.699	-137.625	  0.99778	  0.03328	  0.94946	  0.05759	  0.92805	 -0.05761	  1.20542	710.26099	 15.60	
 18.698	-142.952	  0.99968	  0.00279	  0.99347	  0.09706	  0.87921	 -0.05846	  1.20643	710.21600	 15.60	
 18.704	-148.255	  0.99876	 -0.02192	  1.02779	  0.13988	  0.82450	 -0.05708	  1.20293	710.23700	 15.60	
 18.695	-153.537	  1.00218	 -0.03980	  1.06153	  0.18892	  0.77100	 -0.05505	  1.20418	710.22302	 15.60	
 18.706	-158.818	  1.00700	 -0.05890	  1.09312	  0.23826	  0.71672	 -0.05541	  1.20919	710.29602	 15.60	
 18.691	-164.085	  1.00688	 -0.06974	  1.11068	  0.29246	  0.65620	 -0.05301	  1.20487	710.14502	 15.60	
 18.703	-169.441	  1.00998	 -0.07877	  1.12915	  0.34853	  0.59804	 -0.05446	  1.20759	710.16901	 15.60	
 18.709	-174.675	  1.01253	 -0.08264	  1.13930	  0.40608	  0.54022	 -0.05300	  1.20799	710.23499	 15.60	
 18.700	180.000	  1.01502	 -0.08142	  1.14239	  0.46625	  0.48180	 -0.05311	  1.20737	710.23700	 15.60	
 20.400	180.000	  0.96525	 -0.16117	  1.16107	  0.42663	  0.44094	 -0.04731	  1.20280	710.19897	 15.60	
 20.401	-175.153	  0.96689	 -0.16244	  1.16187	  0.36877	  0.50121	 -0.04860	  1.20734	710.20001	 15.60	
 20.407	-170.264	  0.96292	 -0.15889	  1.15076	  0.31024	  0.55875	 -0.04890	  1.20464	710.26099	 15.60	
 20.410	-165.423	  0.96329	 -0.15319	  1.14058	  0.25424	  0.61885	 -0.04927	  1.20831	710.23499	 15.60	
 20.392	-160.496	  0.96151	 -0.14147	  1.12046	  0.20019	  0.67862	 -0.05029	  1.20815	710.17603	 15.60	
 20.401	-155.705	  0.96029	 -0.12987	  1.09861	  0.14940	  0.73551	 -0.05211	  1.21065	710.23199	 15.60	
 20.405	-150.835	  0.95576	 -0.10994	  1.06402	  0.10110	  0.78959	 -0.05564	  1.20638	710.24597	 15.60	
 20.397	-145.903	  0.95426	 -0.08607	  1.02835	  0.05579	  0.84583	 -0.05531	  1.20674	710.13702	 15.60	
 20.392	-141.062	  0.95316	 -0.05956	  0.98760	  0.01497	  0.89688	 -0.05455	  1.20658	710.18298	 15.60	
 20.396	-136.227	  0.94909	 -0.03157	  0.94273	 -0.02336	  0.94282	 -0.05538	  1.20455	710.10797	 15.60	
 20.408	-131.372	  0.94767	  0.00164	  0.89504	 -0.05762	  0.98783	 -0.05485	  1.20475	710.16400	 15.70	
 20.410	-126.511	  0.94758	  0.03917	  0.84289	 -0.08858	  1.02918	 -0.05442	  1.20551	710.12903	 15.60	
 20.400	-121.604	  0.94632	  0.07954	  0.78906	 -0.11462	  1.06440	 -0.05616	  1.20568	710.15698	 15.60	
 20.403	-116.741	  0.94603	  0.12299	  0.73426	 -0.13857	  1.09652	 -0.05498	  1.20659	710.11798	 15.60	
 20.413	-111.900	  0.94291	  0.16896	  0.67298	 -0.15819	  1.11944	 -0.05300	  1.20408	710.14801	 15.60	
 20.398	-107.004	  0.94576	  0.21970	  0.61598	 -0.17357	  1.14251	 -0.05310	  1.20733	710.20398	 15.70	
 20.394	-102.132	  0.94663	  0.27305	  0.55539	 -0.18527	  1.15973	 -0.05074	  1.20931	710.06702	 15.60	
 20.403	-97.332	  0.94472	  0.32728	  0.49457	 -0.19321	  1.16659	 -0.04934	  1.20721	710.13397	 15.60	
 20.392	-92.440	  0.94415	  0.38353	  0.43356	 -0.19868	  1.17095	 -0.04765	  1.20615	710.06799	 15.70	
 20.392	-87.560	  0.94257	  0.44125	  0.37394	 -0.19845	  1.16775	 -0.04760	  1.20350	710.03003	 15.70	
 20.403	-82.668	  0.94551	  0.50191	  0.31760	 -0.19517	  1.16550	 -0.04401	  1.20648	710.14203	 15.70	
 20.394	-77.868	  0.94739	  0.56176	  0.26398	 -0.18965	  1.15767	 -0.04332	  1.20961	710.24298	 15.70	
 20.398	-72.996	  0.94866	  0.62173	  0.21127	 -0.17794	  1.14180	 -0.04405	  1.20849	710.10303	 15.70	
 20.413	-68.100	  0.94772	  0.68003	  0.15894	 -0.16426	  1.11890	 -0.04424	  1.20666	710.22900	 15.70	
 20.403	-63.259	  0.94978	  0.73905	  0.11332	 -0.14661	  1.09463	 -0.04628	  1.20868	710.22302	 15.70	
 20.400	-58.396	  0.94860	  0.79348	  0.06888	 -0.12428	  1.06098	 -0.04532	  1.20552	710.12097	 15.70	
 20.410	-53.489	  0.94786	  0.84825	  0.02546	 -0.09923	  1.02392	 -0.04853	  1.20487	710.18402	 15.70	
 20.408	-48.628	  0.94909	  0.90047	 -0.01226	 -0.06890	  0.98264	 -0.04664	  1.20485	710.15601	 15.70	
 20.396	-43.773	  0.95121	  0.94957	 -0.04728	 -0.03657	  0.93898	 -0.04929	  1.20652	710.17499	 15.70	
 20.392	-38.938	  0.95492	  0.99625	 -0.07705	 -0.00038	  0.89330	 -0.04939	  1.20878	710.20001	 15.70	
 20.397	-34.097	  0.95404	  1.03469	 -0.10362	  0.03914	  0.84154	 -0.04912	  1.20713	710.17297	 15.70	
 20.405	-29.165	  0.95209	  1.06828	 -0.12691	  0.08253	  0.78437	 -0.04786	  1.20432	710.10199	 15.70	
 20.401	-24.295	  0.95486	  1.10062	 -0.14654	  0.12915	  0.73012	 -0.04741	  1.20610	710.22101	 15.70	
 20.392	-19.504	  0.95819	  1.12809	 -0.16182	  0.17976	  0.67438	 -0.04734	  1.20869	710.19598	 15.70	
 20.410	-14.577	  0.95816	  1.14804	 -0.17450	  0.23197	  0.61453	 -0.04645	  1.20828	710.16901	 15.70	
 20.407	 -9.736	  0.96069	  1.16513	 -0.18315	  0.28733	  0.55736	 -0.04736	  1.21040	710.22101	 15.70	
 20.401	 -4.847	  0.95919	  1.16998	 -0.18538	  0.34347	  0.49669	 -0.04732	  1.20592	710.13202	 15.70	
 20.400	  0.000	  0.95831	  1.17349	 -0.18714	  0.40054	  0.43897	 -0.04970	  1.20430	710.17200	 15.70	
 20.401	  4.847	  0.95826	  1.17201	 -0.18526	  0.45985	  0.38151	 -0.05010	  1.20341	710.18799	 15.70	
 20.407	  9.736	  0.96051	  1.16842	 -0.17919	  0.52128	  0.32599	 -0.04848	  1.20540	710.11401	 15.70	
 20.410	 14.577	  0.96457	  1.16067	 -0.16972	  0.58263	  0.27512	 -0.04876	  1.20802	710.13397	 15.70	
 20.392	 19.504	  0.96316	  1.14202	 -0.15504	  0.64294	  0.22196	 -0.04868	  1.20488	710.15698	 15.70	
 20.401	 24.295	  0.96669	  1.12164	 -0.13524	  0.70344	  0.17664	 -0.04831	  1.20524	710.14203	 15.70	
 20.405	 29.165	  0.96756	  1.09650	 -0.11850	  0.76094	  0.12826	 -0.04941	  1.20593	710.08398	 15.70	
 20.397	 34.097	  0.97199	  1.06539	 -0.09007	  0.81967	  0.08727	 -0.05093	  1.20815	710.12903	 15.70	
 20.392	 38.938	  0.97028	  1.02687	 -0.06318	  0.87099	  0.04721	 -0.05282	  1.20537	710.10699	 15.70	
 20.396	 43.773	  0.97749	  0.99295	 -0.03165	  0.92766	  0.01188	 -0.05498	  1.21304	710.21301	 15.70	
 20.408	 48.628	  0.97534	  0.94568	  0.00203	  0.97205	 -0.02171	 -0.05586	  1.20943	710.09399	 15.70	
 20.410	 53.489	  0.97490	  0.89535	  0.04068	  1.01299	 -0.05152	 -0.05390	  1.20722	710.15302	 15.70	
 20.400	 58.396	  0.97796	  0.84415	  0.08305	  1.05388	 -0.07723	 -0.04833	  1.20984	710.13501	 15.70	
 20.403	 63.259	  0.97940	  0.79005	  0.12877	  1.08800	 -0.09891	 -0.04881	  1.21093	710.13501	 15.70	
 20.413	 68.100	  0.97577	  0.73005	  0.17601	  1.11094	 -0.11664	 -0.04745	  1.20528	710.19598	 15.70	
 20.398	 72.996	  0.97527	  0.67052	  0.22725	  1.13220	 -0.13019	 -0.04788	  1.20338	710.19897	 15.70	
 20.394	 77.868	  0.97836	  0.61456	  0.28056	  1.15179	 -0.14014	 -0.04776	  1.20619	710.12903	 15.70	
 20.403	 82.668	  0.97803	  0.55468	  0.33629	  1.16195	 -0.14726	 -0.04696	  1.20471	710.10999	 15.70	
 20.392	 87.560	  0.97785	  0.49576	  0.39428	  1.16883	 -0.15079	 -0.04574	  1.20503	710.13501	 15.70	
 20.392	 92.440	  0.97405	  0.43517	  0.45023	  1.16603	 -0.15066	 -0.04310	  1.20057	710.20697	 15.70	
 20.403	 97.332	  0.97733	  0.37870	  0.51202	  1.16546	 -0.14694	 -0.04254	  1.20466	710.14203	 15.70	
 20.394	102.132	  0.98242	  0.32520	  0.57415	  1.16188	 -0.14022	 -0.04060	  1.20979	710.06799	 15.70	
 20.398	107.004	  0.97982	  0.26966	  0.63197	  1.14506	 -0.13101	 -0.04347	  1.20797	710.11798	 15.70	
 20.413	111.900	  0.97664	  0.21643	  0.68987	  1.12126	 -0.11617	 -0.04271	  1.20468	710.10699	 15.70	
 20.403	116.741	  0.97687	  0.16832	  0.74696	  1.09500	 -0.09675	 -0.04386	  1.20407	710.09497	 15.70	
 20.400	121.604	  0.97933	  0.12385	  0.80529	  1.06781	 -0.07489	 -0.04493	  1.20766	710.12701	 15.70	
 20.410	126.511	  0.97928	  0.07939	  0.85993	  1.03103	 -0.05048	 -0.04762	  1.20709	710.14801	 15.70	
 20.408	131.372	  0.97947	  0.03925	  0.91235	  0.98964	 -0.02062	 -0.04740	  1.20771	710.14001	 15.70	
 20.396	136.227	  0.97966	  0.00243	  0.96092	  0.94567	  0.01154	 -0.04622	  1.20866	710.09100	 15.70	
 20.392	141.062	  0.98001	 -0.02975	  1.00353	  0.89730	  0.04766	 -0.04682	  1.20909	710.22302	 15.70	
 20.397	145.903	  0.97544	 -0.05669	  1.03728	  0.84164	  0.08783	 -0.04510	  1.20334	710.18799	 15.70	
 20.405	150.835	  0.97340	 -0.08436	  1.07151	  0.78410	  0.13049	 -0.04777	  1.20286	710.15100	 15.70	
 20.401	155.705	  0.96943	 -0.10769	  1.09695	  0.72444	  0.17452	 -0.04803	  1.19950	710.09198	 15.70	
 20.392	160.496	  0.97512	 -0.12646	  1.12700	  0.67048	  0.22395	 -0.04940	  1.20684	710.09399	 15.70	
 20.410	165.423	  0.97142	 -0.14079	  1.14312	  0.60839	  0.27528	 -0.04910	  1.20455	710.12598	 15.70	
 20.407	170.264	  0.97323	 -0.15069	  1.15784	  0.55020	  0.32986	 -0.04864	  1.20812	710.05200	 15.70	
 20.401	175.153	  0.97196	 -0.15822	  1.16478	  0.48997	  0.38583	 -0.04788	  1.20868	710.09900	 15.70	
  0.141	 45.000	  1.21664	  0.65349	  0.64261	  0.64341	  0.65326	  0.00564	  1.21215	710.12598	 15.70	
  4.001	128.691	  1.21319	  0.56511	  0.71176	  0.73482	  0.54688	  0.00202	  1.20773	710.11401	 15.70	
  4.002	 76.995	  1.21336	  0.68007	  0.59364	  0.76465	  0.52062	  0.00356	  1.20778	710.14502	 15.70	
  4.002	 25.892	  1.21027	  0.77669	  0.50267	  0.67980	  0.58792	  0.00101	  1.20675	710.09198	 15.70	
  4.002	-25.892	  1.20640	  0.76929	  0.50017	  0.55687	  0.70684	 -0.00075	  1.20496	710.09497	 15.80	
  4.002	-76.995	  1.20628	  0.66885	  0.58712	  0.48864	  0.78479	 -0.00227	  1.20495	710.07800	 15.70	
  4.001	-128.691	  1.21049	  0.55666	  0.70931	  0.51468	  0.76015	 -0.00052	  1.20634	710.11102	 15.70	
  4.000	180.000	  1.21430	  0.51357	  0.77016	  0.62505	  0.64901	  0.00012	  1.20848	710.06201	 15.80	
  8.000	180.000	  1.18922	  0.34769	  0.89837	  0.59937	  0.62190	 -0.01494	  1.20486	710.10797	 15.80	
  7.991	-152.370	  1.18528	  0.37120	  0.86052	  0.46478	  0.75661	 -0.01699	  1.20509	710.04498	 15.80	
  7.997	-124.550	  1.18472	  0.45094	  0.76136	  0.36616	  0.86537	 -0.01777	  1.20707	710.10999	 15.80	
  8.006	-96.837	  1.17921	  0.57303	  0.62348	  0.31928	  0.91479	 -0.01838	  1.20391	710.13702	 15.80	
  7.988	-69.228	  1.18199	  0.71274	  0.49150	  0.33350	  0.89976	 -0.02000	  1.20826	710.18402	 15.80	
  7.997	-41.563	  1.18356	  0.83319	  0.38808	  0.40287	  0.81732	 -0.01668	  1.20731	710.07001	 15.80	
  8.008	-13.821	  1.18323	  0.90708	  0.32867	  0.51622	  0.69024	 -0.01701	  1.20580	710.10699	 15.80	
  8.008	 13.821	  1.18850	  0.91408	  0.33136	  0.65997	  0.55384	 -0.01337	  1.20848	710.09497	 15.80	
  7.997	 41.563	  1.19113	  0.84962	  0.39093	  0.79239	  0.43855	 -0.01130	  1.20804	710.14001	 15.80	
  7.988	 69.228	  1.19209	  0.73208	  0.49862	  0.87896	  0.37073	 -0.01025	  1.20695	710.15302	 15.80	
  8.006	 96.837	  1.19578	  0.59558	  0.63563	  0.90253	  0.35721	 -0.00990	  1.20941	710.15698	 15.80	
  7.997	124.550	  1.19352	  0.46959	  0.76800	  0.84819	  0.40038	 -0.01090	  1.20704	710.14301	 15.80	
  7.991	152.370	  1.18851	  0.38113	  0.86265	  0.73536	  0.49319	 -0.01291	  1.20284	710.10699	 15.80	
 12.009	161.059	  1.14295	  0.20101	  0.98574	  0.70289	  0.44261	 -0.03467	  1.20391	710.08301	 15.80	
 12.013	142.081	  1.14489	  0.26244	  0.91438	  0.83583	  0.32763	 -0.03064	  1.20524	710.02197	 15.80	
 12.006	123.113	  1.14764	  0.36042	  0.80249	  0.94181	  0.24399	 -0.03190	  1.20737	710.10797	 15.80	
 12.007	104.200	  1.15031	  0.48554	  0.66724	  1.00346	  0.19636	 -0.02956	  1.20942	710.09998	 15.80	
 11.989	 85.301	  1.14883	  0.62535	  0.52331	  1.01274	  0.18620	 -0.02919	  1.20805	710.06799	 15.80	
 12.013	 66.294	  1.14446	  0.76515	  0.38675	  0.96977	  0.21412	 -0.02910	  1.20547	710.17999	 15.80	
 12.012	 47.388	  1.14493	  0.89127	  0.27681	  0.88395	  0.28035	 -0.02871	  1.20867	710.03998	 15.80	
 11.990	 28.440	  1.13935	  0.97791	  0.19890	  0.75819	  0.37974	 -0.03302	  1.20648	710.03802	 15.80	
 11.991	  9.464	  1.13405	  1.01953	  0.15880	  0.61443	  0.50664	 -0.03458	  1.20274	710.07001	 15.80	
 11.991	 -9.464	  1.13066	  1.01474	  0.15457	  0.46923	  0.64494	 -0.03648	  1.20285	710.15100	 15.80	
 11.990	-28.440	  1.13088	  0.96195	  0.19337	  0.34258	  0.78338	 -0.03834	  1.20509	710.07501	 15.80	
 12.012	-47.388	  1.13142	  0.86682	  0.26870	  0.24043	  0.90503	 -0.03940	  1.20758	710.07001	 15.80	
 12.013	-66.294	  1.13005	  0.73742	  0.37700	  0.17493	  0.98785	 -0.04171	  1.20676	710.10797	 15.80	
 11.989	-85.301	  1.13134	  0.59636	  0.51028	  0.14726	  1.02614	 -0.04148	  1.20903	710.08002	 15.80	
 12.007	-104.200	  1.13049	  0.45783	  0.65322	  0.15919	  1.01317	 -0.04177	  1.20679	710.15698	 15.80	
 12.006	-123.113	  1.13051	  0.33797	  0.78940	  0.20955	  0.95216	 -0.03889	  1.20458	710.02698	 15.80	
 12.013	-142.081	  1.13484	  0.24650	  0.90641	  0.29812	  0.85225	 -0.03719	  1.20631	710.12598	 15.80	
 12.009	-161.059	  1.13974	  0.19433	  0.98312	  0.41868	  0.72260	 -0.03814	  1.20711	710.12701	 15.80	
 16.000	180.000	  1.07492	  0.01844	  1.10044	  0.50837	  0.52647	 -0.05518	  1.20987	710.21503	 15.80	
 15.990	-165.604	  1.06772	  0.03093	  1.07555	  0.36984	  0.66596	 -0.05615	  1.20594	710.17200	 15.80	
 16.002	-151.165	  1.06308	  0.06941	  1.01659	  0.24611	  0.80165	 -0.05680	  1.20551	710.12701	 15.80	
 16.002	-136.836	  1.06279	  0.13608	  0.92717	  0.14584	  0.92315	 -0.05687	  1.20779	710.01898	 15.80	
 15.995	-122.439	  1.05573	  0.22508	  0.80483	  0.06713	  1.01544	 -0.05772	  1.20379	710.13702	 15.80	
 15.993	-107.966	  1.05375	  0.33792	  0.66849	  0.01561	  1.07922	 -0.05971	  1.20409	710.09100	 15.80	
 16.005	-93.629	  1.05281	  0.46789	  0.52688	 -0.00821	  1.10696	 -0.05545	  1.20402	710.09497	 15.80	
 15.992	-79.234	  1.05117	  0.60596	  0.38867	 -0.00352	  1.09451	 -0.05261	  1.20229	710.06201	 15.80	
 16.009	-64.774	  1.05443	  0.74661	  0.26736	  0.03264	  1.04974	 -0.05223	  1.20413	710.06403	 15.80	
 15.997	-50.364	  1.05461	  0.87305	  0.16208	  0.09189	  0.96747	 -0.05644	  1.20214	710.06799	 15.80	
 15.997	-36.045	  1.05797	  0.98210	  0.07930	  0.17553	  0.85965	 -0.05390	  1.20411	710.05402	 15.80	
 16.000	-21.597	  1.06144	  1.06056	  0.03012	  0.29240	  0.73109	 -0.05219	  1.20519	710.00800	 15.80	
 16.003	 -7.169	  1.06451	  1.10344	  0.00225	  0.42021	  0.59410	 -0.05410	  1.20673	710.06000	 15.80	
 16.003	  7.169	  1.06707	  1.10859	  0.00441	  0.56134	  0.45759	 -0.05272	  1.20619	710.07202	 15.80	
 16.000	 21.597	  1.07044	  1.07742	  0.03440	  0.70451	  0.33156	 -0.05200	  1.20724	710.13202	 15.80	
 15.997	 36.045	  1.07103	  1.00653	  0.08636	  0.83769	  0.21721	 -0.05145	  1.20473	710.03802	 15.80	
 15.997	 50.364	  1.07625	  0.90967	  0.16656	  0.95422	  0.12947	 -0.05010	  1.20833	710.20697	 15.80	
 16.009	 64.774	  1.07633	  0.78444	  0.27103	  1.03867	  0.06622	 -0.04846	  1.20645	710.15698	 15.80	
 15.992	 79.234	  1.07635	  0.64404	  0.39701	  1.08722	  0.03124	 -0.04902	  1.20434	710.08002	 15.80	
 16.005	 93.629	  1.07813	  0.50267	  0.53553	  1.10210	  0.02242	 -0.04729	  1.20676	710.12097	 15.80	
 15.993	107.966	  1.07773	  0.36768	  0.67840	  1.07589	  0.04222	 -0.04813	  1.20585	710.03802	 15.80	
 15.995	122.439	  1.08021	  0.24809	  0.81805	  1.01315	  0.09215	 -0.05064	  1.20835	710.10999	 15.80	
 16.002	136.836	  1.07882	  0.14847	  0.93542	  0.91380	  0.16547	 -0.04949	  1.20752	710.04498	 15.80	
 16.002	151.165	  1.07639	  0.07758	  1.02565	  0.79028	  0.26606	 -0.05123	  1.20727	710.03998	 15.80	
 15.990	165.604	  1.07591	  0.03552	  1.08129	  0.65046	  0.38986	 -0.05271	  1.20765	709.95502	 15.80	
 20.003	168.362	  0.98254	 -0.12775	  1.14660	  0.57971	  0.32047	 -0.04910	  1.20540	709.97302	 15.80	
 20.008	156.764	  0.98737	 -0.09423	  1.10723	  0.72064	  0.20198	 -0.04851	  1.20845	709.97900	 15.80	
 20.000	145.147	  0.98900	 -0.03812	  1.03494	  0.85266	  0.09707	 -0.04644	  1.20904	710.01300	 15.80	
 19.995	133.545	  0.99099	  0.03855	  0.93475	  0.96949	  0.01123	 -0.04760	  1.20960	710.04303	 15.90	
 20.009	121.926	  0.98569	  0.13230	  0.80938	  1.05723	 -0.05638	 -0.04608	  1.20251	710.03198	 15.90	
 20.005	110.327	  0.98838	  0.24548	  0.67792	  1.12408	 -0.10126	 -0.04310	  1.20558	710.08002	 15.90	
 19.989	 98.733	  0.98259	  0.36979	  0.53488	  1.15188	 -0.12582	 -0.04298	  1.19797	710.00800	 15.90	
 19.999	 87.075	  0.98452	  0.50588	  0.39607	  1.15908	 -0.13233	 -0.04565	  1.20067	710.04498	 15.90	
 19.992	 75.457	  0.98686	  0.64602	  0.26651	  1.13722	 -0.11745	 -0.04956	  1.20404	710.11798	 15.90	
 20.009	 63.844	  0.98330	  0.77914	  0.14787	  1.08061	 -0.08243	 -0.04865	  1.20243	709.96698	 15.90	
 19.989	 52.269	  0.98480	  0.90646	  0.04721	  0.99951	 -0.02574	 -0.05236	  1.20644	709.97900	 15.90	
 19.999	 40.602	  0.98085	  1.00973	 -0.03533	  0.88954	  0.05007	 -0.05344	  1.20436	710.03003	 15.90	
 20.004	 29.051	  0.97940	  1.09448	 -0.10064	  0.76276	  0.14546	 -0.05096	  1.20759	709.98102	 15.90	
 20.005	 17.433	  0.97836	  1.14891	 -0.14277	  0.62611	  0.25821	 -0.04933	  1.21010	709.90900	 15.90	
 20.006	  5.780	  0.97230	  1.16965	 -0.16553	  0.48130	  0.38291	 -0.04900	  1.20681	709.99799	 15.90	
 20.006	 -5.780	  0.97015	  1.16527	 -0.16868	  0.34321	  0.51618	 -0.05061	  1.20738	710.05200	 15.90	
 20.005	-17.433	  0.96520	  1.12925	 -0.14988	  0.21290	  0.65197	 -0.04679	  1.20436	709.95099	 15.90	
 20.004	-29.051	  0.96465	  1.06819	 -0.11181	  0.09879	  0.78591	 -0.04819	  1.20617	710.03497	 15.90	
 19.999	-40.602	  0.96136	  0.97595	 -0.04925	  0.00359	  0.90729	 -0.04861	  1.20326	710.05902	 15.90	
 19.989	-52.269	  0.96072	  0.86431	  0.03211	 -0.07283	  1.01273	 -0.04786	  1.20487	710.09998	 15.90	
 20.009	-63.844	  0.95860	  0.73467	  0.13251	 -0.12977	  1.09303	 -0.04512	  1.20478	710.09998	 15.90	
 19.992	-75.457	  0.95891	  0.59841	  0.24972	 -0.16410	  1.14579	 -0.04331	  1.20709	709.99701	 15.90	
 19.999	-87.075	  0.95541	  0.45744	  0.38063	 -0.17698	  1.16427	 -0.04504	  1.20357	710.11798	 15.90	
 19.989	-98.733	  0.95702	  0.32395	  0.52042	 -0.17078	  1.16061	 -0.04936	  1.20610	710.00800	 15.90	
 20.005	-110.327	  0.95812	  0.20155	  0.66013	 -0.14367	  1.12653	 -0.05307	  1.20719	710.03998	 15.90	
 20.009	-121.926	  0.95835	  0.09265	  0.79477	 -0.09497	  1.06023	 -0.05406	  1.20561	710.08002	 15.90	
 19.995	-133.545	  0.96222	  0.00502	  0.91781	 -0.02488	  0.97013	 -0.05481	  1.20701	710.05902	 15.90	
 20.000	-145.147	  0.96490	 -0.06437	  1.01908	  0.06516	  0.85445	 -0.05582	  1.20495	710.17603	 15.90	
 20.008	-156.764	  0.97020	 -0.11229	  1.09717	  0.17370	  0.72824	 -0.05363	  1.20783	710.02698	 15.90	
 20.003	-168.362	  0.97247	 -0.13836	  1.14032	  0.29985	  0.58790	 -0.05108	  1.20387	710.08301	 15.90	
 20.000	180.000	  0.97976	 -0.14362	  1.16098	  0.43700	  0.45215	 -0.05078	  1.20753	710.07202	 15.90	
