FileType=PCF
NHL=14
Date=08/29/17	15:57:34
Facility=APL
Serial=16328-15
Customer=NASA
NP=6
Mach=0.050000
Calibration=1:1
CalPts=490
TstPts=95
PortNumbering=AP Standard
Units=Torr C m/s kg/m^3 deg mm 
Theta[deg]	Phi[deg]	P1[Torr]	P2[Torr]	P3[Torr]	P4[Torr]	P5[Torr]	P6[Torr]	Pt[Torr]	Ps[Abs,Torr]	Ts[C]	
  0.000	  0.000	  1.28105	  0.69225	  0.68252	  0.68596	  0.69882	  0.00712	  1.27445	704.65601	 24.10	
  1.691	128.401	  1.27788	  0.65996	  0.70927	  0.72124	  0.65732	  0.00680	  1.27050	704.73102	 24.10	
  1.692	 77.194	  1.27779	  0.70439	  0.66291	  0.73246	  0.64685	  0.00716	  1.27154	704.65503	 24.10	
  1.699	 26.182	  1.28195	  0.74910	  0.62689	  0.70185	  0.67379	  0.00652	  1.27489	704.60400	 24.10	
  1.699	-26.182	  1.28038	  0.74829	  0.62443	  0.64942	  0.72737	  0.00524	  1.27323	704.73700	 24.10	
  1.692	-77.194	  1.28062	  0.70516	  0.66238	  0.62294	  0.76118	  0.00462	  1.27430	704.67798	 24.10	
  1.691	-128.401	  1.28422	  0.65884	  0.71442	  0.63637	  0.75144	  0.00579	  1.27701	704.68701	 24.10	
  1.700	180.000	  1.28003	  0.63970	  0.73571	  0.67656	  0.70050	  0.00654	  1.27414	704.64203	 24.10	
  3.400	180.000	  1.27712	  0.57186	  0.79906	  0.67053	  0.69599	  0.00387	  1.27292	704.91101	 24.10	
  3.388	-152.325	  1.27206	  0.58151	  0.78085	  0.61357	  0.75236	  0.00339	  1.26874	704.84198	 24.10	
  3.397	-124.529	  1.27506	  0.61785	  0.74245	  0.57464	  0.80181	  0.00232	  1.27309	704.76801	 24.10	
  3.399	-96.763	  1.27441	  0.67023	  0.68468	  0.55477	  0.82428	  0.00137	  1.27226	704.84198	 24.10	
  3.394	-69.283	  1.27482	  0.72942	  0.62571	  0.55969	  0.81562	  0.00113	  1.27101	704.68903	 24.10	
  3.400	-41.398	  1.27300	  0.78106	  0.57817	  0.58879	  0.77797	  0.00048	  1.26929	704.70099	 24.10	
  3.401	-14.021	  1.27837	  0.81398	  0.55464	  0.63888	  0.72716	  0.00139	  1.27275	704.78802	 24.10	
  3.401	 14.021	  1.27902	  0.81509	  0.55516	  0.70004	  0.66562	  0.00236	  1.27421	704.62799	 24.10	
  3.400	 41.398	  1.28127	  0.78762	  0.58072	  0.75501	  0.61645	  0.00357	  1.27422	704.72803	 24.10	
  3.394	 69.283	  1.27843	  0.73384	  0.62577	  0.78936	  0.58628	  0.00331	  1.27273	704.62097	 24.10	
  3.399	 96.763	  1.27851	  0.67440	  0.68297	  0.79760	  0.58091	  0.00360	  1.27224	704.58502	 24.10	
  3.397	124.529	  1.27960	  0.62285	  0.74064	  0.77694	  0.59944	  0.00405	  1.27326	704.65002	 24.10	
  3.388	152.325	  1.27755	  0.58650	  0.78193	  0.72990	  0.63930	  0.00317	  1.27171	704.66602	 24.10	
  5.099	161.165	  1.26174	  0.50799	  0.84228	  0.72089	  0.62214	 -0.00171	  1.26306	704.76001	 24.10	
  5.109	142.013	  1.27450	  0.54041	  0.81693	  0.78489	  0.57584	 -0.00120	  1.27561	704.66302	 24.10	
  5.095	123.033	  1.27367	  0.58271	  0.76580	  0.82737	  0.53787	 -0.00066	  1.27288	704.62701	 24.10	
  5.105	104.191	  1.27152	  0.63515	  0.70499	  0.85217	  0.51373	 -0.00066	  1.26938	704.67798	 24.10	
  5.093	 85.207	  1.27938	  0.70095	  0.64603	  0.86140	  0.51243	 -0.00008	  1.27683	704.76501	 24.10	
  5.104	 66.290	  1.27481	  0.76004	  0.58470	  0.84169	  0.52286	 -0.00096	  1.27147	704.68597	 24.10	
  5.094	 47.331	  1.27429	  0.81426	  0.53490	  0.80327	  0.55326	 -0.00067	  1.27208	704.70898	 24.10	
  5.089	 28.397	  1.27035	  0.85224	  0.49934	  0.75023	  0.59682	 -0.00187	  1.26812	704.67999	 24.10	
  5.096	  9.576	  1.26941	  0.87322	  0.48059	  0.68972	  0.65396	 -0.00308	  1.26818	704.70300	 24.10	
  5.096	 -9.576	  1.27422	  0.87644	  0.48266	  0.62837	  0.72093	 -0.00411	  1.27363	704.78198	 24.10	
  5.089	-28.397	  1.27033	  0.85095	  0.50035	  0.57192	  0.77986	 -0.00546	  1.27234	704.73700	 24.10	
  5.094	-47.331	  1.27237	  0.81204	  0.53686	  0.52779	  0.83475	 -0.00542	  1.27536	704.72803	 24.10	
  5.104	-66.290	  1.27423	  0.75886	  0.58806	  0.49657	  0.87427	 -0.00635	  1.27837	704.68903	 24.10	
  5.093	-85.207	  1.26881	  0.69312	  0.64580	  0.48260	  0.88818	 -0.00637	  1.27396	704.72900	 24.10	
  5.105	-104.191	  1.26593	  0.62978	  0.70850	  0.48698	  0.88178	 -0.00482	  1.27254	704.78400	 24.10	
  5.095	-123.033	  1.26810	  0.57698	  0.76814	  0.51177	  0.85533	 -0.00322	  1.27344	704.74298	 24.10	
  5.109	-142.013	  1.27032	  0.53558	  0.81891	  0.55182	  0.81156	 -0.00255	  1.27498	704.77698	 24.10	
  5.099	-161.165	  1.26938	  0.50922	  0.84980	  0.60427	  0.75169	 -0.00238	  1.27288	704.68701	 24.10	
  5.100	180.000	  1.26697	  0.49919	  0.85856	  0.66208	  0.68709	 -0.00167	  1.26991	704.80499	 24.10	
  6.800	180.000	  1.25803	  0.42766	  0.91818	  0.65214	  0.67723	 -0.00818	  1.27289	704.68597	 24.10	
  6.796	-166.229	  1.25868	  0.43380	  0.91185	  0.59323	  0.74004	 -0.00817	  1.27472	704.76801	 24.10	
  6.808	-152.311	  1.25451	  0.45069	  0.88698	  0.53641	  0.79817	 -0.00883	  1.27218	704.83899	 24.10	
  6.795	-138.383	  1.25110	  0.48014	  0.84712	  0.48707	  0.85000	 -0.01039	  1.26912	704.93701	 24.10	
  6.792	-124.591	  1.24897	  0.52119	  0.79718	  0.44877	  0.89323	 -0.01099	  1.26787	704.77698	 24.10	
  6.787	-110.754	  1.25406	  0.57372	  0.74327	  0.42464	  0.92705	 -0.01192	  1.27274	704.71997	 24.10	
  6.800	-96.985	  1.24972	  0.62939	  0.67988	  0.40961	  0.93919	 -0.01420	  1.26888	704.75201	 24.10	
  6.800	-83.015	  1.25019	  0.69208	  0.61566	  0.40817	  0.93859	 -0.01397	  1.26815	704.71997	 24.10	
  6.787	-69.246	  1.25277	  0.75404	  0.55861	  0.42148	  0.92417	 -0.01408	  1.26904	704.71399	 24.10	
  6.792	-55.409	  1.25328	  0.81103	  0.50585	  0.44587	  0.89296	 -0.01528	  1.26857	704.69800	 24.10	
  6.795	-41.617	  1.25833	  0.86304	  0.46404	  0.48349	  0.85246	 -0.01458	  1.27248	704.88300	 24.10	
  6.808	-27.689	  1.26002	  0.90179	  0.43187	  0.53178	  0.79801	 -0.01436	  1.27191	704.83502	 24.10	
  6.796	-13.771	  1.26547	  0.92904	  0.41309	  0.58846	  0.73994	 -0.01383	  1.27767	704.82098	 24.10	
  6.800	  0.000	  1.26178	  0.93448	  0.40463	  0.64617	  0.67539	 -0.01312	  1.27116	704.65503	 24.10	
  6.796	 13.771	  1.26708	  0.93050	  0.41324	  0.71052	  0.61698	 -0.01092	  1.27494	704.80402	 24.10	
  6.808	 27.689	  1.26616	  0.90670	  0.43132	  0.76993	  0.56010	 -0.00901	  1.27282	704.87500	 24.10	
  6.795	 41.617	  1.26899	  0.87085	  0.46482	  0.82532	  0.51452	 -0.00854	  1.27488	704.78802	 24.10	
  6.792	 55.409	  1.26711	  0.82053	  0.50631	  0.86730	  0.47625	 -0.00776	  1.27241	704.70898	 24.10	
  6.787	 69.246	  1.26466	  0.76275	  0.55744	  0.89756	  0.45045	 -0.00671	  1.26999	704.64203	 24.10	
  6.800	 83.015	  1.27097	  0.70552	  0.61814	  0.91889	  0.43970	 -0.00681	  1.27534	704.75702	 24.20	
  6.800	 96.985	  1.26943	  0.64235	  0.68060	  0.91926	  0.44006	 -0.00731	  1.27559	704.66699	 24.20	
  6.787	110.754	  1.26747	  0.58435	  0.74028	  0.90243	  0.45322	 -0.00717	  1.27340	704.74200	 24.10	
  6.792	124.591	  1.26734	  0.53255	  0.79910	  0.87256	  0.47871	 -0.00753	  1.27500	704.82703	 24.20	
  6.795	138.383	  1.26888	  0.49056	  0.85134	  0.83138	  0.51778	 -0.00831	  1.27846	704.85498	 24.20	
  6.808	152.311	  1.26452	  0.45660	  0.88792	  0.77633	  0.56322	 -0.00784	  1.27495	704.73102	 24.20	
  6.796	166.229	  1.25768	  0.43510	  0.90761	  0.71341	  0.61633	 -0.00788	  1.26929	704.71198	 24.20	
  8.491	168.704	  1.24455	  0.36060	  0.96578	  0.70328	  0.60069	 -0.01676	  1.27400	704.72803	 24.20	
  8.502	157.493	  1.24297	  0.37560	  0.94387	  0.76274	  0.54221	 -0.01572	  1.27055	704.64398	 24.20	
  8.494	146.194	  1.24519	  0.40235	  0.91141	  0.82073	  0.49055	 -0.01560	  1.26988	704.69702	 24.20	
  8.495	135.039	  1.24963	  0.43982	  0.87005	  0.87411	  0.44655	 -0.01669	  1.27329	704.70099	 24.20	
  8.487	123.723	  1.25314	  0.48626	  0.81878	  0.91878	  0.41075	 -0.01596	  1.27516	704.76202	 24.20	
  8.492	112.575	  1.25491	  0.53840	  0.76005	  0.94973	  0.38457	 -0.01479	  1.27509	704.80402	 24.20	
  8.510	101.220	  1.25432	  0.59584	  0.69636	  0.96860	  0.36733	 -0.01615	  1.27339	704.71100	 24.20	
  8.500	 90.000	  1.25482	  0.65862	  0.63230	  0.97362	  0.36282	 -0.01541	  1.27276	704.73401	 24.20	
  8.510	 78.780	  1.25900	  0.72388	  0.57115	  0.96945	  0.36782	 -0.01521	  1.27709	704.65503	 24.20	
  8.492	 67.425	  1.25325	  0.78236	  0.51012	  0.94419	  0.38238	 -0.01342	  1.27222	704.78003	 24.20	
  8.487	 56.277	  1.25430	  0.84040	  0.45920	  0.91247	  0.40861	 -0.01538	  1.27311	704.71997	 24.20	
  8.495	 44.961	  1.25211	  0.89147	  0.41319	  0.86822	  0.44398	 -0.01647	  1.27118	704.73700	 24.20	
  8.494	 33.806	  1.25557	  0.93543	  0.37860	  0.81865	  0.49011	 -0.01627	  1.27638	704.74200	 24.20	
  8.502	 22.507	  1.25327	  0.96666	  0.35164	  0.75923	  0.54197	 -0.01747	  1.27546	704.70300	 24.20	
  8.491	 11.296	  1.24845	  0.98180	  0.33507	  0.69436	  0.59780	 -0.02063	  1.27114	704.75403	 24.20	
  8.500	  0.000	  1.25057	  0.99106	  0.33058	  0.63197	  0.66246	 -0.02246	  1.27517	704.62799	 24.20	
  8.491	-11.296	  1.24635	  0.98078	  0.33661	  0.56904	  0.72499	 -0.02119	  1.27193	704.72900	 24.20	
  8.502	-22.507	  1.24518	  0.96071	  0.35234	  0.51132	  0.78749	 -0.02218	  1.27235	704.74902	 24.20	
  8.494	-33.806	  1.24316	  0.92730	  0.37931	  0.45856	  0.84645	 -0.02205	  1.27232	704.73700	 24.20	
  8.495	-44.961	  1.24127	  0.88426	  0.41478	  0.41434	  0.89758	 -0.02411	  1.27206	704.70398	 24.20	
  8.487	-56.277	  1.24316	  0.83325	  0.46225	  0.38059	  0.94224	 -0.02446	  1.27617	704.68903	 24.20	
  8.492	-67.425	  1.23581	  0.77208	  0.51236	  0.35410	  0.97003	 -0.02365	  1.26956	704.73401	 24.20	
  8.510	-78.780	  1.23772	  0.71109	  0.57215	  0.33886	  0.99255	 -0.02430	  1.27341	704.68701	 24.20	
  8.500	-90.000	  1.23304	  0.64559	  0.63386	  0.33464	  0.99674	 -0.02370	  1.26922	704.79901	 24.20	
  8.510	-101.220	  1.23117	  0.58314	  0.69650	  0.33880	  0.98969	 -0.02281	  1.26879	704.65503	 24.20	
  8.492	-112.575	  1.23658	  0.52798	  0.76228	  0.35812	  0.97378	 -0.02054	  1.27410	704.73700	 24.20	
  8.487	-123.723	  1.23216	  0.47444	  0.81697	  0.38325	  0.93848	 -0.01844	  1.26935	704.69501	 24.20	
  8.495	-135.039	  1.23591	  0.43099	  0.87153	  0.41894	  0.89916	 -0.01800	  1.27329	704.71198	 24.20	
  8.494	-146.194	  1.23535	  0.39560	  0.91360	  0.46348	  0.84666	 -0.01628	  1.27088	704.64099	 24.20	
  8.502	-157.493	  1.23777	  0.37089	  0.94650	  0.51776	  0.78851	 -0.01602	  1.27232	704.61798	 24.20	
  8.491	-168.704	  1.23676	  0.35647	  0.96367	  0.57448	  0.72547	 -0.01618	  1.26991	704.75201	 24.20	
  8.500	180.000	  1.24198	  0.35284	  0.97277	  0.63826	  0.66363	 -0.01697	  1.27329	704.68597	 24.20	
 10.200	180.000	  1.21685	  0.27623	  1.02048	  0.61896	  0.64368	 -0.02622	  1.26976	704.72601	 24.20	
 10.191	-170.497	  1.21918	  0.28009	  1.01834	  0.55764	  0.71002	 -0.02525	  1.27394	704.76599	 24.20	
 10.210	-161.034	  1.21667	  0.29170	  1.00168	  0.49777	  0.77310	 -0.02467	  1.27307	704.70099	 24.20	
 10.194	-151.526	  1.21200	  0.31246	  0.97040	  0.44051	  0.83202	 -0.02503	  1.26973	704.73901	 24.20	
 10.190	-142.105	  1.21279	  0.34225	  0.93475	  0.39165	  0.88951	 -0.02682	  1.27237	704.67999	 24.20	
 10.215	-132.646	  1.20841	  0.37840	  0.88667	  0.34894	  0.93585	 -0.02751	  1.26796	704.82898	 24.20	
 10.203	-123.092	  1.21098	  0.42503	  0.83432	  0.31441	  0.98069	 -0.02856	  1.27208	704.67200	 24.20	
 10.192	-113.678	  1.20979	  0.47605	  0.77514	  0.28800	  1.01171	 -0.02976	  1.27136	704.73901	 24.20	
 10.208	-104.249	  1.20567	  0.53131	  0.70983	  0.26836	  1.03015	 -0.03185	  1.26637	704.84698	 24.20	
 10.210	-94.801	  1.21669	  0.59688	  0.65151	  0.26024	  1.05173	 -0.03437	  1.27705	704.75897	 24.20	
 10.210	-85.199	  1.21296	  0.65958	  0.58343	  0.25854	  1.04786	 -0.03467	  1.27195	704.69501	 24.20	
 10.208	-75.751	  1.21596	  0.72387	  0.52319	  0.26652	  1.03794	 -0.03559	  1.27481	704.76001	 24.20	
 10.192	-66.322	  1.21530	  0.78551	  0.46459	  0.28485	  1.01222	 -0.03488	  1.27108	704.87799	 24.20	
 10.203	-56.908	  1.22051	  0.84742	  0.41286	  0.31160	  0.98285	 -0.03486	  1.27527	704.72498	 24.20	
 10.215	-47.354	  1.21853	  0.89962	  0.36401	  0.34441	  0.93761	 -0.03400	  1.27126	704.85498	 24.20	
 10.190	-37.895	  1.22105	  0.94654	  0.32629	  0.38611	  0.88887	 -0.03366	  1.27249	704.88599	 24.20	
 10.194	-28.474	  1.22069	  0.98284	  0.29491	  0.43398	  0.83083	 -0.03103	  1.27046	704.64697	 24.20	
 10.210	-18.966	  1.21932	  1.01007	  0.27099	  0.48740	  0.76762	 -0.03101	  1.26690	704.82703	 24.20	
 10.191	 -9.503	  1.22366	  1.02914	  0.25907	  0.54774	  0.70626	 -0.02963	  1.26896	704.70599	 24.20	
 10.200	  0.000	  1.22831	  1.03833	  0.25505	  0.61196	  0.64365	 -0.03129	  1.27321	704.72803	 24.20	
 10.191	  9.503	  1.22912	  1.03308	  0.25893	  0.67646	  0.58012	 -0.03107	  1.27112	704.74500	 24.20	
 10.210	 18.966	  1.22864	  1.01606	  0.27075	  0.73844	  0.51983	 -0.02731	  1.26923	704.78802	 24.30	
 10.194	 28.474	  1.23584	  0.99347	  0.29452	  0.80369	  0.46710	 -0.02581	  1.27508	704.92902	 24.30	
 10.190	 37.895	  1.23227	  0.95299	  0.32355	  0.85762	  0.41586	 -0.02592	  1.27050	704.83801	 24.20	
 10.215	 47.354	  1.23453	  0.90980	  0.36182	  0.90958	  0.37361	 -0.02536	  1.27172	704.84198	 24.30	
 10.203	 56.908	  1.23503	  0.85655	  0.40849	  0.95239	  0.34013	 -0.02414	  1.27255	704.69702	 24.20	
 10.192	 66.322	  1.23786	  0.79947	  0.46247	  0.98678	  0.31529	 -0.02348	  1.27387	704.89502	 24.30	
 10.208	 75.751	  1.23848	  0.73866	  0.51997	  1.01171	  0.29742	 -0.02363	  1.27578	704.76001	 24.20	
 10.210	 85.199	  1.23357	  0.67181	  0.57974	  1.02007	  0.28828	 -0.02417	  1.26987	704.74597	 24.20	
 10.210	 94.801	  1.23803	  0.60925	  0.64713	  1.02471	  0.28885	 -0.02476	  1.27468	704.91101	 24.20	
 10.208	104.249	  1.23638	  0.54764	  0.71085	  1.01395	  0.29830	 -0.02424	  1.27443	704.65002	 24.30	
 10.192	113.678	  1.23856	  0.49205	  0.77612	  0.99387	  0.31738	 -0.02421	  1.27703	704.67200	 24.30	
 10.203	123.092	  1.23474	  0.43794	  0.83415	  0.96058	  0.34200	 -0.02537	  1.27495	704.86700	 24.30	
 10.215	132.646	  1.22914	  0.38904	  0.88629	  0.91607	  0.37483	 -0.02672	  1.27106	704.79901	 24.20	
 10.190	142.105	  1.22681	  0.35052	  0.93300	  0.86614	  0.41774	 -0.02481	  1.27127	704.78497	 24.20	
 10.194	151.526	  1.22881	  0.32052	  0.97416	  0.81211	  0.46899	 -0.02491	  1.27522	704.98999	 24.20	
 10.210	161.034	  1.22238	  0.29666	  0.99985	  0.74888	  0.52190	 -0.02383	  1.27220	704.88599	 24.20	
 10.191	170.497	  1.22685	  0.28309	  1.02169	  0.68818	  0.58441	 -0.02604	  1.27763	704.87201	 24.20	
 11.899	171.783	  1.19820	  0.20698	  1.06652	  0.66690	  0.56204	 -0.03571	  1.27546	704.86298	 24.20	
 11.890	163.610	  1.19812	  0.21905	  1.05012	  0.72968	  0.50092	 -0.03442	  1.27290	704.92297	 24.20	
 11.889	155.445	  1.19975	  0.23928	  1.02433	  0.79134	  0.44471	 -0.03353	  1.27126	704.83002	 24.20	
 11.909	147.299	  1.20306	  0.26506	  0.99285	  0.85257	  0.39189	 -0.03508	  1.27412	704.78400	 24.30	
 11.902	139.148	  1.20754	  0.30000	  0.95248	  0.90843	  0.34664	 -0.03547	  1.27526	704.80499	 24.30	
 11.894	130.867	  1.20512	  0.34059	  0.89782	  0.95212	  0.30606	 -0.03672	  1.26998	704.71198	 24.30	
 11.897	122.732	  1.21170	  0.38819	  0.84681	  0.99810	  0.27330	 -0.03580	  1.27597	704.86902	 24.30	
 11.903	114.597	  1.21252	  0.44028	  0.78697	  1.03103	  0.24668	 -0.03482	  1.27509	704.85999	 24.30	
 11.893	106.346	  1.21509	  0.49819	  0.72301	  1.05536	  0.22788	 -0.03456	  1.27590	704.86102	 24.30	
 11.892	 98.155	  1.21387	  0.55774	  0.65729	  1.06778	  0.21539	 -0.03562	  1.27385	704.95697	 24.30	
 11.900	 90.000	  1.21003	  0.61812	  0.59013	  1.06837	  0.21078	 -0.03552	  1.26935	704.91101	 24.30	
 11.892	 81.845	  1.21020	  0.68188	  0.52705	  1.06201	  0.21493	 -0.03472	  1.26851	704.93103	 24.30	
 11.893	 73.654	  1.21453	  0.74849	  0.46821	  1.04954	  0.22680	 -0.03313	  1.27268	704.96301	 24.30	
 11.903	 65.403	  1.21429	  0.81142	  0.41006	  1.02527	  0.24515	 -0.03324	  1.27435	705.04102	 24.30	
 11.897	 57.268	  1.21514	  0.87095	  0.35861	  0.99137	  0.27146	 -0.03415	  1.27500	704.86401	 24.30	
 11.894	 49.133	  1.21496	  0.92514	  0.31234	  0.94911	  0.30502	 -0.03368	  1.27565	704.80798	 24.30	
 11.902	 40.852	  1.20844	  0.96862	  0.27025	  0.89605	  0.34315	 -0.03446	  1.26926	704.61298	 24.30	
 11.909	 32.701	  1.20858	  1.01021	  0.23808	  0.84132	  0.38972	 -0.03437	  1.27169	704.76001	 24.30	
 11.889	 24.555	  1.20838	  1.04230	  0.21364	  0.78182	  0.44331	 -0.03537	  1.27257	704.83197	 24.30	
 11.890	 16.390	  1.20832	  1.06678	  0.19488	  0.72042	  0.49957	 -0.03768	  1.27336	704.75403	 24.30	
 11.899	  8.217	  1.20667	  1.08047	  0.18345	  0.65679	  0.55946	 -0.04093	  1.27350	704.76501	 24.30	
 11.900	  0.000	  1.20716	  1.08666	  0.17938	  0.59218	  0.62409	 -0.04105	  1.27602	704.83899	 24.30	
 11.899	 -8.217	  1.20356	  1.07917	  0.18308	  0.52789	  0.68785	 -0.04088	  1.27408	704.71997	 24.30	
 11.890	-16.390	  1.20414	  1.06525	  0.19530	  0.46979	  0.75255	 -0.04006	  1.27703	704.65900	 24.30	
 11.889	-24.555	  1.20252	  1.04035	  0.21523	  0.41281	  0.81637	 -0.04047	  1.27690	704.69397	 24.30	
 11.909	-32.701	  1.19607	  1.00296	  0.24069	  0.35951	  0.87267	 -0.04113	  1.27220	704.70300	 24.30	
 11.902	-40.852	  1.19631	  0.96264	  0.27506	  0.31562	  0.92755	 -0.04405	  1.27406	704.79303	 24.30	
 11.894	-49.133	  1.19444	  0.91251	  0.31569	  0.27533	  0.97671	 -0.04523	  1.27460	704.63300	 24.30	
 11.897	-57.268	  1.19233	  0.85683	  0.36141	  0.24153	  1.01850	 -0.04479	  1.27423	704.69702	 24.30	
 11.903	-65.403	  1.19098	  0.79742	  0.41442	  0.21530	  1.05234	 -0.04335	  1.27475	704.69800	 24.30	
 11.893	-73.654	  1.19037	  0.73410	  0.47272	  0.19852	  1.07639	 -0.04437	  1.27585	704.83002	 24.30	
 11.892	-81.845	  1.18818	  0.66984	  0.53316	  0.18788	  1.09026	 -0.04427	  1.27442	704.78198	 24.30	
 11.900	-90.000	  1.18915	  0.60572	  0.59766	  0.18485	  1.09731	 -0.04434	  1.27777	704.80798	 24.30	
 11.892	-98.155	  1.18765	  0.54315	  0.66147	  0.18908	  1.09145	 -0.04273	  1.27512	704.82098	 24.30	
 11.893	-106.346	  1.18660	  0.48274	  0.72611	  0.20070	  1.07712	 -0.04269	  1.27571	704.70099	 24.30	
 11.903	-114.597	  1.18280	  0.42434	  0.78750	  0.21900	  1.05034	 -0.03968	  1.27163	704.77698	 24.30	
 11.897	-122.732	  1.18628	  0.37433	  0.84862	  0.24626	  1.02047	 -0.03879	  1.27556	704.84998	 24.30	
 11.894	-130.867	  1.18447	  0.32940	  0.90123	  0.28043	  0.97665	 -0.03695	  1.27356	704.81500	 24.30	
 11.902	-139.148	  1.18141	  0.28875	  0.94729	  0.32086	  0.92447	 -0.03535	  1.26860	704.95599	 24.30	
 11.909	-147.299	  1.18441	  0.25634	  0.99133	  0.36618	  0.87279	 -0.03514	  1.27012	704.99597	 24.30	
 11.889	-155.445	  1.18317	  0.23160	  1.02075	  0.41778	  0.81177	 -0.03527	  1.26739	704.79602	 24.30	
 11.890	-163.610	  1.19304	  0.21513	  1.05250	  0.47757	  0.75454	 -0.03572	  1.27625	704.82098	 24.30	
 11.899	-171.783	  1.19411	  0.20434	  1.06653	  0.53780	  0.68986	 -0.03602	  1.27508	704.86298	 24.30	
 11.900	180.000	  1.19286	  0.20168	  1.06805	  0.60021	  0.62430	 -0.03600	  1.27040	704.79303	 24.30	
 13.600	180.000	  1.16316	  0.12702	  1.11152	  0.57701	  0.60090	 -0.04620	  1.27354	704.87000	 24.30	
 13.608	-172.853	  1.15868	  0.12821	  1.10527	  0.51369	  0.66237	 -0.04670	  1.27166	704.95300	 24.30	
 13.611	-165.583	  1.16293	  0.13748	  1.09802	  0.45452	  0.73041	 -0.04614	  1.27791	704.92603	 24.30	
 13.601	-158.353	  1.15583	  0.15335	  1.07119	  0.39439	  0.79149	 -0.04500	  1.27049	704.83502	 24.30	
 13.609	-151.210	  1.16009	  0.17516	  1.04657	  0.34276	  0.85560	 -0.04502	  1.27816	704.91699	 24.30	
 13.611	-143.999	  1.15868	  0.20228	  1.00996	  0.29382	  0.91256	 -0.04573	  1.27907	704.90302	 24.30	
 13.601	-136.825	  1.15212	  0.23518	  0.96045	  0.24759	  0.96123	 -0.04601	  1.27219	704.81897	 24.30	
 13.596	-129.640	  1.15169	  0.27583	  0.91045	  0.21008	  1.00898	 -0.04685	  1.27269	704.89502	 24.30	
 13.611	-122.431	  1.14743	  0.32008	  0.85178	  0.17676	  1.04534	 -0.04824	  1.26848	704.80701	 24.30	
 13.604	-115.211	  1.14605	  0.37016	  0.79174	  0.15186	  1.07731	 -0.04919	  1.26700	704.78497	 24.30	
 13.595	-108.042	  1.15186	  0.42736	  0.73320	  0.13341	  1.10737	 -0.05083	  1.27354	704.93103	 24.30	
 13.607	-100.793	  1.15006	  0.48482	  0.66712	  0.11818	  1.12239	 -0.05131	  1.27069	704.90002	 24.30	
 13.601	-93.617	  1.15218	  0.54685	  0.60430	  0.11203	  1.13203	 -0.05090	  1.27276	704.85199	 24.30	
 13.601	-86.383	  1.15436	  0.61136	  0.53975	  0.11152	  1.13243	 -0.05148	  1.27415	704.76202	 24.30	
 13.607	-79.207	  1.15499	  0.67560	  0.47792	  0.11751	  1.12428	 -0.05051	  1.27354	704.81097	 24.30	
 13.595	-71.958	  1.15686	  0.73997	  0.41866	  0.13112	  1.10676	 -0.04997	  1.27281	704.74597	 24.30	
 13.604	-64.789	  1.15630	  0.80138	  0.36153	  0.14841	  1.07974	 -0.05011	  1.27109	704.85199	 24.30	
 13.611	-57.569	  1.15754	  0.86051	  0.30997	  0.17215	  1.04688	 -0.05137	  1.27010	704.88702	 24.30	
 13.596	-50.360	  1.16000	  0.91679	  0.26423	  0.20437	  1.00661	 -0.05321	  1.27068	704.80499	 24.30	
 13.601	-43.175	  1.16035	  0.96679	  0.22328	  0.24222	  0.95860	 -0.05150	  1.26932	704.79102	 24.30	
 13.611	-36.001	  1.16304	  1.01205	  0.18747	  0.28421	  0.90583	 -0.04956	  1.26900	704.81500	 24.30	
 13.609	-28.790	  1.16701	  1.05233	  0.15806	  0.33313	  0.85039	 -0.04841	  1.27197	704.79102	 24.30	
 13.601	-21.647	  1.16488	  1.07887	  0.13495	  0.38439	  0.78774	 -0.04729	  1.26795	704.85498	 24.30	
 13.611	-14.417	  1.17094	  1.10492	  0.11838	  0.44297	  0.72684	 -0.04753	  1.27228	704.95599	 24.30	
 13.608	 -7.147	  1.17332	  1.11920	  0.10863	  0.50382	  0.66292	 -0.04695	  1.27321	704.73901	 24.30	
 13.600	  0.000	  1.17241	  1.12222	  0.10558	  0.56518	  0.59821	 -0.04822	  1.27064	704.82898	 24.30	
 13.608	  7.147	  1.17878	  1.12307	  0.10822	  0.63112	  0.53771	 -0.04831	  1.27585	704.80103	 24.30	
 13.611	 14.417	  1.17743	  1.10885	  0.11721	  0.69419	  0.47528	 -0.04697	  1.27204	704.83197	 24.30	
 13.601	 21.647	  1.17897	  1.08788	  0.13462	  0.75836	  0.41850	 -0.04514	  1.27169	704.79303	 24.30	
 13.609	 28.790	  1.18195	  1.06147	  0.15579	  0.82123	  0.36425	 -0.04274	  1.27365	704.77301	 24.30	
 13.611	 36.001	  1.18222	  1.02450	  0.18364	  0.87809	  0.31546	 -0.04295	  1.27284	704.87500	 24.30	
 13.601	 43.175	  1.18705	  0.98450	  0.21917	  0.93356	  0.27361	 -0.04383	  1.27637	704.81500	 24.30	
 13.596	 50.360	  1.18329	  0.93129	  0.25933	  0.97849	  0.23497	 -0.04349	  1.27080	704.69702	 24.30	
 13.611	 57.569	  1.18583	  0.87767	  0.30586	  1.02256	  0.20247	 -0.04255	  1.27300	704.81897	 24.30	
 13.604	 64.789	  1.18763	  0.82025	  0.35746	  1.05882	  0.17627	 -0.04230	  1.27564	704.95001	 24.30	
 13.595	 71.958	  1.18880	  0.75862	  0.41446	  1.08502	  0.15847	 -0.04250	  1.27434	704.82098	 24.30	
 13.607	 79.207	  1.18251	  0.69147	  0.47227	  1.09777	  0.14465	 -0.04341	  1.26868	704.92499	 24.30	
 13.601	 86.383	  1.18514	  0.62905	  0.53522	  1.10992	  0.13904	 -0.04437	  1.27139	704.97101	 24.30	
 13.601	 93.617	  1.18894	  0.56669	  0.60224	  1.11471	  0.13940	 -0.04420	  1.27594	704.93402	 24.30	
 13.607	100.793	  1.18447	  0.50327	  0.66567	  1.10405	  0.14514	 -0.04354	  1.27258	704.94000	 24.30	
 13.595	108.042	  1.18903	  0.44569	  0.73356	  1.09180	  0.15921	 -0.04429	  1.27770	705.00201	 24.30	
 13.604	115.211	  1.18239	  0.38773	  0.79270	  1.06298	  0.17701	 -0.04456	  1.27234	704.87500	 24.30	
 13.611	122.431	  1.17834	  0.33564	  0.85221	  1.02842	  0.20284	 -0.04529	  1.27097	704.94000	 24.30	
 13.596	129.640	  1.17564	  0.28903	  0.90668	  0.98644	  0.23552	 -0.04603	  1.26872	704.81299	 24.30	
 13.601	136.825	  1.17493	  0.24798	  0.95854	  0.93995	  0.27409	 -0.04525	  1.26981	704.88702	 24.30	
 13.611	143.999	  1.17111	  0.21114	  1.00270	  0.88766	  0.31606	 -0.04471	  1.26956	704.99597	 24.30	
 13.609	151.210	  1.16891	  0.18166	  1.03971	  0.82978	  0.36452	 -0.04400	  1.26893	704.89099	 24.30	
 13.601	158.353	  1.16717	  0.15897	  1.06981	  0.76884	  0.41860	 -0.04319	  1.26971	704.85999	 24.30	
 13.611	165.583	  1.16673	  0.14162	  1.09338	  0.70594	  0.47736	 -0.04558	  1.27247	704.81097	 24.30	
 13.608	172.853	  1.16382	  0.13111	  1.10532	  0.64149	  0.53674	 -0.04500	  1.27196	704.82202	 24.30	
 15.298	173.587	  1.12947	  0.06038	  1.14319	  0.61695	  0.51213	 -0.05282	  1.27129	704.80701	 24.30	
 15.291	167.167	  1.13327	  0.06919	  1.13401	  0.68142	  0.45288	 -0.05250	  1.27274	704.82397	 24.30	
 15.307	160.676	  1.13180	  0.08319	  1.11036	  0.74285	  0.39309	 -0.05188	  1.26901	704.80499	 24.30	
 15.300	154.261	  1.13530	  0.10468	  1.08470	  0.80583	  0.33948	 -0.05159	  1.26902	704.87701	 24.30	
 15.288	147.854	  1.13927	  0.13074	  1.05234	  0.86594	  0.29036	 -0.05126	  1.27180	704.81897	 24.30	
 15.293	141.428	  1.14554	  0.16284	  1.01536	  0.92443	  0.24610	 -0.05267	  1.27586	704.92902	 24.30	
 15.299	134.985	  1.14666	  0.19945	  0.96836	  0.97591	  0.20444	 -0.05535	  1.27489	704.82397	 24.30	
 15.305	128.583	  1.14400	  0.23900	  0.91196	  1.01724	  0.16683	 -0.05393	  1.26913	704.78802	 24.30	
 15.309	122.142	  1.15092	  0.28589	  0.85968	  1.06185	  0.13676	 -0.05355	  1.27519	704.79901	 24.30	
 15.304	115.711	  1.14930	  0.33540	  0.79716	  1.09083	  0.11118	 -0.05255	  1.27069	704.79102	 24.30	
 15.297	109.291	  1.15192	  0.39083	  0.73557	  1.11635	  0.09233	 -0.05085	  1.27154	704.86298	 24.30	
 15.293	102.897	  1.15192	  0.44784	  0.67076	  1.13478	  0.07712	 -0.05223	  1.27099	704.83801	 24.30	
 15.293	 96.458	  1.15498	  0.50959	  0.60738	  1.14760	  0.06848	 -0.05308	  1.27492	704.98199	 24.30	
 15.300	 90.000	  1.15620	  0.57233	  0.54342	  1.15131	  0.06565	 -0.05417	  1.27512	704.75201	 24.30	
 15.293	 83.542	  1.15619	  0.63628	  0.48036	  1.14546	  0.06963	 -0.05286	  1.27325	704.73901	 24.30	
 15.293	 77.103	  1.15910	  0.70209	  0.41961	  1.13613	  0.07778	 -0.05134	  1.27696	704.74298	 24.30	
 15.297	 70.709	  1.15375	  0.76145	  0.35965	  1.11085	  0.09100	 -0.05037	  1.27220	704.80798	 24.30	
 15.304	 64.289	  1.15147	  0.82150	  0.30456	  1.08187	  0.11006	 -0.04950	  1.26939	704.73499	 24.30	
 15.309	 57.858	  1.15216	  0.88075	  0.25450	  1.04988	  0.13454	 -0.05048	  1.27108	704.77698	 24.30	
 15.305	 51.417	  1.15397	  0.93733	  0.20959	  1.01083	  0.16525	 -0.05164	  1.27441	704.70099	 24.30	
 15.299	 45.015	  1.15519	  0.98989	  0.17002	  0.96579	  0.20314	 -0.05228	  1.27537	704.79303	 24.30	
 15.293	 38.572	  1.14919	  1.03052	  0.13412	  0.90865	  0.24378	 -0.05148	  1.26995	704.72601	 24.30	
 15.288	 32.146	  1.14941	  1.07107	  0.10375	  0.85357	  0.28924	 -0.04935	  1.27259	704.70599	 24.30	
 15.300	 25.739	  1.14969	  1.10430	  0.07897	  0.79515	  0.33976	 -0.04837	  1.27425	704.87000	 24.30	
 15.307	 19.324	  1.15010	  1.13148	  0.06166	  0.73415	  0.39609	 -0.04958	  1.27613	704.80103	 24.30	
 15.291	 12.833	  1.14748	  1.14837	  0.04674	  0.66853	  0.45301	 -0.05103	  1.27540	704.75403	 24.30	
 15.298	  6.413	  1.14251	  1.15578	  0.03955	  0.60472	  0.51097	 -0.05337	  1.27137	704.77698	 24.30	
 15.300	  0.000	  1.13896	  1.15606	  0.03670	  0.53960	  0.57288	 -0.05234	  1.27017	704.67499	 24.30	
 15.298	 -6.413	  1.13597	  1.15025	  0.03918	  0.47773	  0.63488	 -0.05106	  1.26765	704.80402	 24.40	
 15.291	-12.833	  1.13500	  1.13771	  0.05067	  0.41967	  0.69871	 -0.05084	  1.26911	704.77698	 24.40	
 15.307	-19.324	  1.13711	  1.12359	  0.06197	  0.36165	  0.76550	 -0.05015	  1.27331	704.71698	 24.40	
 15.300	-25.739	  1.13212	  1.09270	  0.08318	  0.30853	  0.82403	 -0.05215	  1.26905	704.79102	 24.40	
 15.288	-32.146	  1.13095	  1.05911	  0.10977	  0.26143	  0.88245	 -0.05189	  1.26965	704.84198	 24.30	
 15.293	-38.572	  1.12964	  1.01995	  0.14048	  0.21656	  0.93869	 -0.05350	  1.27051	704.88000	 24.40	
 15.299	-45.015	  1.12551	  0.97162	  0.17649	  0.17612	  0.98829	 -0.05658	  1.26880	704.71399	 24.40	
 15.305	-51.417	  1.12648	  0.92147	  0.21693	  0.13964	  1.03562	 -0.05750	  1.27181	704.74902	 24.40	
 15.309	-57.858	  1.12083	  0.86311	  0.26262	  0.11154	  1.07109	 -0.05608	  1.26762	704.88000	 24.30	
 15.304	-64.289	  1.12144	  0.80505	  0.31292	  0.08660	  1.10730	 -0.05394	  1.27019	704.79602	 24.40	
 15.297	-70.709	  1.12043	  0.74266	  0.36752	  0.06717	  1.13352	 -0.05346	  1.27098	704.68298	 24.40	
 15.293	-77.103	  1.12326	  0.68269	  0.42608	  0.05336	  1.15774	 -0.05365	  1.27632	704.69000	 24.40	
 15.293	-83.542	  1.11981	  0.61744	  0.48644	  0.04629	  1.16634	 -0.05481	  1.27390	704.74500	 24.40	
 15.300	-90.000	  1.11494	  0.55195	  0.54751	  0.04403	  1.16696	 -0.05510	  1.26974	704.91498	 24.40	
 15.293	-96.458	  1.11401	  0.48841	  0.61015	  0.04495	  1.16285	 -0.05572	  1.27031	704.86902	 24.40	
 15.293	-102.897	  1.11802	  0.43222	  0.67737	  0.05595	  1.15608	 -0.05739	  1.27487	704.86700	 24.40	
 15.297	-109.291	  1.11788	  0.37532	  0.74052	  0.06996	  1.13772	 -0.05742	  1.27475	704.79901	 24.40	
 15.304	-115.711	  1.11451	  0.32035	  0.80063	  0.08926	  1.10942	 -0.05671	  1.27192	704.60400	 24.40	
 15.309	-122.142	  1.12095	  0.27234	  0.86374	  0.11416	  1.08198	 -0.05645	  1.27803	704.78998	 24.40	
 15.305	-128.583	  1.11801	  0.22666	  0.91715	  0.14497	  1.03945	 -0.05517	  1.27408	704.65802	 24.40	
 15.299	-134.985	  1.11735	  0.18541	  0.96754	  0.17889	  0.99354	 -0.05494	  1.27412	704.62402	 24.40	
 15.293	-141.428	  1.11640	  0.15172	  1.01132	  0.22161	  0.93991	 -0.05435	  1.27040	704.74298	 24.40	
 15.288	-147.854	  1.11671	  0.12032	  1.05125	  0.26670	  0.88285	 -0.05415	  1.26959	704.77600	 24.40	
 15.300	-154.261	  1.12057	  0.09778	  1.08678	  0.31730	  0.82767	 -0.05359	  1.27237	704.82098	 24.40	
 15.307	-160.676	  1.12265	  0.07923	  1.11408	  0.37202	  0.76644	 -0.05473	  1.27381	704.74902	 24.40	
 15.291	-167.167	  1.11989	  0.06558	  1.12850	  0.42856	  0.69842	 -0.05495	  1.26770	704.68597	 24.40	
 15.298	-173.587	  1.12501	  0.05800	  1.14263	  0.48979	  0.63706	 -0.05461	  1.27160	704.66699	 24.40	
 15.300	180.000	  1.12567	  0.05575	  1.14537	  0.55110	  0.57389	 -0.05305	  1.27006	704.68903	 24.40	
 17.000	180.000	  1.09164	 -0.00287	  1.18020	  0.53088	  0.55253	 -0.05865	  1.27274	704.63599	 24.40	
 16.990	-174.179	  1.09163	  0.00267	  1.17850	  0.47269	  0.61603	 -0.05807	  1.27494	704.64099	 24.40	
 17.009	-168.383	  1.08758	  0.00957	  1.16574	  0.41311	  0.67683	 -0.05819	  1.27107	704.77002	 24.40	
 17.000	-162.596	  1.08702	  0.02090	  1.14975	  0.35642	  0.74025	 -0.05810	  1.27420	704.65198	 24.40	
 16.990	-156.759	  1.08694	  0.03400	  1.12822	  0.30202	  0.80160	 -0.05935	  1.27564	704.68103	 24.40	
 16.995	-150.919	  1.08121	  0.05769	  1.09292	  0.25229	  0.85725	 -0.05711	  1.27020	704.74902	 24.40	
 16.988	-145.161	  1.08145	  0.08130	  1.05873	  0.20443	  0.91500	 -0.05989	  1.27262	704.83002	 24.40	
 17.014	-139.343	  1.07831	  0.11007	  1.01580	  0.16031	  0.96796	 -0.05904	  1.27109	704.62097	 24.40	
 17.007	-133.546	  1.07908	  0.14337	  0.97045	  0.12215	  1.01722	 -0.05823	  1.27299	704.67297	 24.40	
 17.001	-127.699	  1.08160	  0.18519	  0.92115	  0.08986	  1.06443	 -0.05882	  1.27667	704.75702	 24.40	
 17.006	-121.937	  1.07737	  0.22905	  0.86222	  0.06247	  1.09920	 -0.05880	  1.27262	704.76801	 24.40	
 17.002	-116.134	  1.07822	  0.27696	  0.80513	  0.03760	  1.13314	 -0.05915	  1.27304	704.83197	 24.40	
 17.001	-110.310	  1.07735	  0.32721	  0.74387	  0.01712	  1.15892	 -0.05879	  1.27282	704.81097	 24.40	
 16.988	-104.517	  1.07790	  0.38111	  0.68127	  0.00139	  1.17801	 -0.05873	  1.27239	704.83600	 24.40	
 17.008	-98.662	  1.07927	  0.44065	  0.62015	 -0.00561	  1.19223	 -0.05523	  1.27347	704.91400	 24.40	
 16.996	-92.909	  1.07566	  0.49688	  0.55557	 -0.01223	  1.19325	 -0.05385	  1.26776	704.71100	 24.40	
 16.996	-87.091	  1.08022	  0.56020	  0.49493	 -0.01290	  1.19716	 -0.05317	  1.27113	704.72900	 24.40	
 17.012	-81.253	  1.08145	  0.62214	  0.43402	 -0.01094	  1.19198	 -0.05280	  1.27220	704.80103	 24.40	
 16.988	-75.483	  1.08656	  0.68740	  0.37949	  0.00095	  1.18221	 -0.05253	  1.27616	704.65002	 24.40	
 17.001	-69.690	  1.08124	  0.74499	  0.32136	  0.01368	  1.15502	 -0.05166	  1.26810	704.67798	 24.40	
 17.002	-63.866	  1.08697	  0.80833	  0.26949	  0.03041	  1.13364	 -0.05319	  1.27350	704.70099	 24.40	
 17.006	-58.063	  1.08758	  0.86667	  0.22085	  0.05498	  1.09921	 -0.05420	  1.27189	704.67200	 24.40	
 17.001	-52.301	  1.08889	  0.92147	  0.17634	  0.08361	  1.05996	 -0.05494	  1.27189	704.79102	 24.40	
 17.007	-46.454	  1.09206	  0.97559	  0.13773	  0.11825	  1.01681	 -0.05683	  1.27307	704.56897	 24.40	
 17.014	-40.657	  1.09318	  1.02224	  0.10146	  0.15491	  0.96782	 -0.05205	  1.27099	704.62701	 24.40	
 16.988	-34.839	  1.09616	  1.06538	  0.06910	  0.19591	  0.91518	 -0.05129	  1.27229	704.56500	 24.40	
 16.995	-29.081	  1.09675	  1.10081	  0.04097	  0.23977	  0.85777	 -0.05210	  1.27195	704.66302	 24.40	
 16.990	-23.241	  1.09954	  1.13255	  0.01927	  0.29005	  0.79925	 -0.05227	  1.27260	704.69501	 24.40	
 17.000	-17.404	  1.10098	  1.15677	  0.00215	  0.34310	  0.73774	 -0.05306	  1.27214	704.82202	 24.40	
 17.009	-11.617	  1.10678	  1.17812	 -0.00849	  0.40156	  0.67819	 -0.05112	  1.27659	704.76801	 24.40	
 16.990	 -5.821	  1.10650	  1.18587	 -0.01463	  0.45970	  0.61499	 -0.04916	  1.27378	704.86401	 24.40	
 17.000	  0.000	  1.10865	  1.19118	 -0.01786	  0.52010	  0.55356	 -0.05057	  1.27420	704.68701	 24.40	
 16.990	  5.821	  1.10773	  1.18638	 -0.01633	  0.58138	  0.49088	 -0.05146	  1.27200	704.69000	 24.40	
 17.009	 11.617	  1.11226	  1.18086	 -0.00926	  0.64461	  0.43492	 -0.05101	  1.27554	704.63501	 24.40	
 17.000	 17.404	  1.11635	  1.16758	  0.00146	  0.70816	  0.37840	 -0.05056	  1.27836	704.81598	 24.40	
 16.990	 23.241	  1.11744	  1.14461	  0.01878	  0.77114	  0.32374	 -0.05143	  1.27775	704.92200	 24.40	
 16.995	 29.081	  1.11366	  1.11002	  0.03944	  0.82675	  0.27202	 -0.05057	  1.27046	704.78198	 24.40	
 16.988	 34.839	  1.11842	  1.07850	  0.06676	  0.88601	  0.22789	 -0.05331	  1.27454	704.83197	 24.40	
 17.014	 40.657	  1.11820	  1.03834	  0.08930	  0.94140	  0.17724	 -0.05605	  1.27489	704.85999	 24.40	
 17.007	 46.454	  1.11849	  0.99075	  0.13172	  0.99042	  0.14481	 -0.05669	  1.27308	704.84698	 24.40	
 17.001	 52.301	  1.12037	  0.94035	  0.16939	  1.03610	  0.10965	 -0.05492	  1.27398	704.78497	 24.40	
 17.006	 58.063	  1.11720	  0.88265	  0.21401	  1.07238	  0.08141	 -0.05476	  1.27017	704.78998	 24.40	
 17.002	 63.866	  1.12363	  0.83025	  0.26113	  1.11288	  0.05429	 -0.05512	  1.27698	704.92499	 24.40	
 17.001	 69.690	  1.12314	  0.76887	  0.31304	  1.14014	  0.03513	 -0.05516	  1.27577	704.82397	 24.40	
 16.988	 75.483	  1.12115	  0.70487	  0.36756	  1.15977	  0.01850	 -0.05776	  1.27358	704.89801	 24.40	
 17.012	 81.253	  1.12269	  0.64488	  0.42718	  1.17615	  0.01027	 -0.05829	  1.27492	704.95599	 24.40	
 16.996	 87.091	  1.12190	  0.58096	  0.48825	  1.18191	  0.00640	 -0.05849	  1.27340	704.86700	 24.40	
 16.996	 92.909	  1.11875	  0.51519	  0.54781	  1.18103	  0.00155	 -0.05799	  1.27265	704.69800	 24.40	
 17.008	 98.662	  1.12016	  0.45876	  0.61276	  1.17691	  0.01000	 -0.05611	  1.27361	704.85199	 24.40	
 16.988	104.517	  1.12004	  0.39989	  0.67777	  1.16462	  0.02120	 -0.05663	  1.27425	704.85303	 24.40	
 17.001	110.310	  1.11497	  0.34266	  0.73842	  1.14146	  0.03492	 -0.05568	  1.27047	704.84698	 24.40	
 17.002	116.134	  1.11913	  0.29059	  0.80348	  1.12113	  0.05327	 -0.06019	  1.27700	704.82703	 24.50	
 17.006	121.937	  1.11429	  0.24359	  0.86074	  1.08423	  0.08102	 -0.06017	  1.27187	704.95300	 24.50	
 17.001	127.699	  1.11105	  0.19770	  0.91564	  1.04454	  0.10900	 -0.06183	  1.27128	704.87701	 24.40	
 17.007	133.546	  1.11136	  0.15510	  0.97088	  1.00346	  0.14047	 -0.06131	  1.27471	704.83002	 24.40	
 17.014	139.343	  1.10586	  0.11470	  1.01591	  0.95151	  0.17560	 -0.05918	  1.27266	704.93201	 24.50	
 16.988	145.161	  1.10634	  0.08807	  1.05968	  0.89870	  0.22320	 -0.05806	  1.27309	704.89099	 24.50	
 16.995	150.919	  1.10693	  0.06145	  1.09960	  0.84510	  0.27002	 -0.05687	  1.27718	704.86902	 24.40	
 16.990	156.759	  1.10382	  0.04230	  1.12849	  0.78461	  0.32348	 -0.05881	  1.27485	704.91699	 24.40	
 17.000	162.596	  1.09824	  0.02516	  1.14874	  0.72020	  0.37771	 -0.05907	  1.27221	704.91803	 24.40	
 17.009	168.383	  1.09788	  0.00672	  1.17006	  0.65761	  0.43151	 -0.05787	  1.27528	704.87500	 24.50	
 16.990	174.179	  1.09523	 -0.00131	  1.17823	  0.59430	  0.49013	 -0.05825	  1.27483	704.93402	 24.50	
 18.709	174.675	  1.04575	 -0.07149	  1.19990	  0.56067	  0.45647	 -0.05743	  1.26722	704.86102	 24.50	
 18.703	169.441	  1.05447	 -0.06323	  1.19788	  0.62547	  0.40199	 -0.05729	  1.27451	704.94501	 24.40	
 18.691	164.085	  1.05895	 -0.05073	  1.18447	  0.68990	  0.34667	 -0.05869	  1.27701	704.89203	 24.50	
 18.706	158.818	  1.06097	 -0.03542	  1.16378	  0.75252	  0.29250	 -0.05710	  1.27724	704.90900	 24.50	
 18.695	153.537	  1.05951	 -0.01425	  1.13154	  0.80938	  0.24186	 -0.05445	  1.27156	704.84998	 24.50	
 18.704	148.255	  1.06410	  0.00986	  1.10079	  0.86897	  0.19499	 -0.05476	  1.27395	704.95599	 24.40	
 18.698	142.952	  1.06435	  0.03806	  1.05888	  0.92364	  0.15008	 -0.05533	  1.27134	704.93201	 24.50	
 18.699	137.625	  1.07073	  0.07202	  1.01811	  0.97941	  0.11151	 -0.05831	  1.27596	704.76599	 24.50	
 18.705	132.343	  1.07148	  0.10767	  0.96870	  1.02515	  0.07623	 -0.05985	  1.27308	705.00098	 24.50	
 18.713	127.067	  1.07452	  0.14841	  0.91687	  1.06957	  0.04386	 -0.05885	  1.27545	704.83002	 24.50	
 18.700	121.794	  1.07616	  0.19195	  0.86004	  1.10724	  0.01619	 -0.05677	  1.27398	704.87201	 24.50	
 18.698	116.504	  1.07741	  0.23940	  0.80131	  1.13955	 -0.00822	 -0.05557	  1.27394	704.83197	 24.50	
 18.707	111.165	  1.08000	  0.28991	  0.74110	  1.16847	 -0.02878	 -0.05421	  1.27615	704.99298	 24.50	
 18.690	105.863	  1.07719	  0.34405	  0.67573	  1.18334	 -0.04116	 -0.05255	  1.27056	704.80402	 24.50	
 18.696	100.583	  1.08007	  0.40056	  0.61311	  1.19927	 -0.05304	 -0.05374	  1.27245	704.78400	 24.50	
 18.700	 95.309	  1.08186	  0.45936	  0.55241	  1.20873	 -0.05940	 -0.05497	  1.27427	704.91699	 24.50	
 18.700	 90.000	  1.08092	  0.51932	  0.48915	  1.20889	 -0.06155	 -0.05591	  1.27203	704.78497	 24.50	
 18.700	 84.691	  1.08798	  0.58483	  0.43000	  1.21335	 -0.06049	 -0.05703	  1.28081	704.76801	 24.50	
 18.696	 79.417	  1.08119	  0.64213	  0.36850	  1.19539	 -0.05465	 -0.05628	  1.27190	704.74500	 24.50	
 18.690	 74.137	  1.08300	  0.70510	  0.31321	  1.18081	 -0.04275	 -0.05439	  1.27362	704.79700	 24.50	
 18.707	 68.835	  1.08222	  0.76611	  0.25767	  1.15949	 -0.03022	 -0.05278	  1.27446	704.68701	 24.50	
 18.698	 63.496	  1.08108	  0.82526	  0.20623	  1.13008	 -0.01124	 -0.05221	  1.27241	704.87500	 24.50	
 18.700	 58.206	  1.07936	  0.88236	  0.15872	  1.09324	  0.00855	 -0.05286	  1.27059	704.87000	 24.50	
 18.713	 52.933	  1.08369	  0.94153	  0.11559	  1.05815	  0.03618	 -0.05407	  1.27657	704.83801	 24.50	
 18.705	 47.657	  1.07824	  0.98865	  0.07595	  1.00880	  0.06828	 -0.05540	  1.27045	704.96002	 24.50	
 18.699	 42.375	  1.07583	  1.03414	  0.03942	  0.95907	  0.10260	 -0.05376	  1.27034	704.67499	 24.50	
 18.698	 37.048	  1.07447	  1.07638	  0.00769	  0.90563	  0.14186	 -0.05068	  1.27053	704.73901	 24.50	
 18.704	 31.745	  1.07724	  1.11861	 -0.02041	  0.85230	  0.18728	 -0.04884	  1.27418	704.82397	 24.50	
 18.695	 26.463	  1.07717	  1.15079	 -0.04243	  0.79361	  0.23543	 -0.04627	  1.27527	704.76501	 24.50	
 18.706	 21.182	  1.07223	  1.17448	 -0.06237	  0.73142	  0.28444	 -0.04636	  1.27283	704.81299	 24.50	
 18.691	 15.915	  1.07097	  1.19381	 -0.07608	  0.66943	  0.33880	 -0.04603	  1.27188	704.92603	 24.50	
 18.703	 10.559	  1.06827	  1.20742	 -0.08722	  0.60546	  0.39542	 -0.04421	  1.27185	704.86700	 24.50	
 18.709	  5.325	  1.06520	  1.21447	 -0.09433	  0.54391	  0.45168	 -0.04619	  1.26988	704.75702	 24.50	
 18.700	  0.000	  1.06220	  1.21482	 -0.09546	  0.48094	  0.51283	 -0.04570	  1.26834	704.77399	 24.50	
 18.709	 -5.325	  1.06426	  1.21587	 -0.09447	  0.42197	  0.57616	 -0.04545	  1.27367	704.77301	 24.50	
 18.703	-10.559	  1.05883	  1.20212	 -0.08773	  0.36307	  0.63454	 -0.04421	  1.26907	704.86700	 24.50	
 18.691	-15.915	  1.06435	  1.19379	 -0.07650	  0.30839	  0.70221	 -0.04608	  1.27713	704.86700	 24.50	
 18.706	-21.182	  1.05830	  1.16729	 -0.06191	  0.25447	  0.76044	 -0.04724	  1.27207	704.92603	 24.50	
 18.695	-26.463	  1.05427	  1.13624	 -0.04148	  0.20430	  0.81824	 -0.04669	  1.26881	704.90002	 24.50	
 18.704	-31.745	  1.05492	  1.10628	 -0.01841	  0.15636	  0.87961	 -0.04873	  1.27315	704.80798	 24.50	
 18.698	-37.048	  1.05591	  1.06914	  0.00977	  0.11410	  0.93651	 -0.04801	  1.27584	704.71698	 24.50	
 18.699	-42.375	  1.04943	  1.02043	  0.04265	  0.07512	  0.98406	 -0.04841	  1.27047	704.79602	 24.50	
 18.705	-47.657	  1.04874	  0.97295	  0.07678	  0.03793	  1.03409	 -0.05079	  1.27317	704.92499	 24.50	
 18.713	-52.933	  1.04876	  0.92201	  0.11733	  0.00674	  1.07937	 -0.04945	  1.27537	704.82098	 24.50	
 18.700	-58.206	  1.04667	  0.86490	  0.16159	 -0.02060	  1.11768	 -0.05043	  1.27534	704.72498	 24.50	
 18.698	-63.496	  1.04039	  0.80305	  0.20922	 -0.04193	  1.14315	 -0.04686	  1.26868	704.86401	 24.50	
 18.707	-68.835	  1.04407	  0.74587	  0.26088	 -0.06221	  1.17730	 -0.04562	  1.27604	704.92603	 24.50	
 18.690	-74.137	  1.04166	  0.68252	  0.31670	 -0.07405	  1.19631	 -0.04635	  1.27365	704.93701	 24.50	
 18.696	-79.417	  1.03929	  0.61908	  0.37252	 -0.08457	  1.21065	 -0.04570	  1.27284	705.00403	 24.50	
 18.700	-84.691	  1.03649	  0.55566	  0.43003	 -0.09219	  1.21846	 -0.04513	  1.27186	705.03497	 24.50	
 18.700	-90.000	  1.03732	  0.49398	  0.49335	 -0.09384	  1.22406	 -0.04793	  1.27484	704.97302	 24.50	
 18.700	-95.309	  1.03461	  0.43400	  0.55437	 -0.09003	  1.21839	 -0.05041	  1.27142	704.86298	 24.50	
 18.696	-100.583	  1.03865	  0.37704	  0.61935	 -0.08291	  1.21560	 -0.05269	  1.27875	704.96301	 24.50	
 18.690	-105.863	  1.03377	  0.31992	  0.67943	 -0.07106	  1.19459	 -0.05389	  1.27314	704.86102	 24.50	
 18.707	-111.165	  1.03413	  0.26601	  0.74110	 -0.05730	  1.17588	 -0.05564	  1.27366	704.79102	 24.50	
 18.698	-116.504	  1.03323	  0.21494	  0.80118	 -0.03759	  1.14780	 -0.05797	  1.27292	704.80701	 24.50	
 18.700	-121.794	  1.03075	  0.16790	  0.85799	 -0.01467	  1.11339	 -0.05550	  1.27056	704.85602	 24.50	
 18.713	-127.067	  1.03373	  0.12608	  0.91583	  0.01440	  1.07813	 -0.05580	  1.27303	704.81299	 24.50	
 18.705	-132.343	  1.03147	  0.08877	  0.96455	  0.04817	  1.03082	 -0.05700	  1.26783	704.82703	 24.50	
 18.699	-137.625	  1.03832	  0.05492	  1.01812	  0.08528	  0.98815	 -0.05817	  1.27481	704.88702	 24.50	
 18.698	-142.952	  1.03720	  0.02366	  1.06042	  0.12514	  0.93516	 -0.05914	  1.27265	704.85999	 24.50	
 18.704	-148.255	  1.03899	 -0.00280	  1.09967	  0.16905	  0.88046	 -0.05718	  1.27400	704.77399	 24.50	
 18.695	-153.537	  1.03465	 -0.02443	  1.12679	  0.21642	  0.81746	 -0.05787	  1.26597	704.83801	 24.50	
 18.706	-158.818	  1.03857	 -0.04347	  1.15675	  0.26718	  0.75945	 -0.05594	  1.26898	704.82202	 24.50	
 18.691	-164.085	  1.04142	 -0.05590	  1.17812	  0.32129	  0.69989	 -0.05643	  1.26872	704.86298	 24.50	
 18.703	-169.441	  1.04586	 -0.06631	  1.19696	  0.38029	  0.63829	 -0.05592	  1.27320	704.98199	 24.50	
 18.709	-174.675	  1.04641	 -0.07183	  1.20499	  0.43777	  0.57679	 -0.05577	  1.27161	704.81299	 24.50	
 18.700	180.000	  1.04696	 -0.07048	  1.20489	  0.49844	  0.51490	 -0.05517	  1.26792	704.94800	 24.50	
 20.400	180.000	  1.00122	 -0.15293	  1.23392	  0.46106	  0.47641	 -0.05345	  1.27331	704.91699	 24.50	
 20.401	-175.153	  1.00044	 -0.15382	  1.23282	  0.40061	  0.53758	 -0.05214	  1.27569	704.86902	 24.50	
 20.407	-170.264	  0.99507	 -0.15011	  1.22114	  0.34015	  0.59727	 -0.05008	  1.27236	704.79303	 24.50	
 20.410	-165.423	  0.99742	 -0.14218	  1.21212	  0.28376	  0.66210	 -0.05277	  1.27711	704.96198	 24.50	
 20.392	-160.496	  0.99359	 -0.12876	  1.18942	  0.22900	  0.72273	 -0.05282	  1.27369	704.95599	 24.50	
 20.401	-155.705	  0.98966	 -0.11247	  1.16199	  0.17784	  0.78115	 -0.05311	  1.27010	704.96997	 24.50	
 20.405	-150.835	  0.99021	 -0.09466	  1.13477	  0.12834	  0.84232	 -0.05519	  1.27476	705.01801	 24.50	
 20.397	-145.903	  0.98531	 -0.07034	  1.09482	  0.08180	  0.89713	 -0.05634	  1.27068	704.88599	 24.50	
 20.392	-141.062	  0.98736	 -0.04354	  1.05710	  0.04048	  0.95338	 -0.05603	  1.27422	704.83197	 24.50	
 20.396	-136.227	  0.98293	 -0.01264	  1.00781	  0.00187	  1.00096	 -0.05485	  1.27086	704.89203	 24.50	
 20.408	-131.372	  0.98101	  0.02189	  0.95756	 -0.03473	  1.04796	 -0.05283	  1.26984	704.68298	 24.50	
 20.410	-126.511	  0.98133	  0.06011	  0.90593	 -0.06484	  1.09067	 -0.05428	  1.27201	704.96802	 24.50	
 20.400	-121.604	  0.97959	  0.10314	  0.84743	 -0.09160	  1.12635	 -0.05272	  1.26805	704.96503	 24.50	
 20.403	-116.741	  0.97619	  0.14814	  0.78701	 -0.11411	  1.15521	 -0.05268	  1.26478	705.04999	 24.50	
 20.413	-111.900	  0.97799	  0.19616	  0.72884	 -0.13495	  1.18644	 -0.05010	  1.26896	704.99597	 24.50	
 20.398	-107.004	  0.97914	  0.24867	  0.66737	 -0.15066	  1.20770	 -0.04964	  1.26907	704.85199	 24.50	
 20.394	-102.132	  0.97764	  0.30277	  0.60361	 -0.16296	  1.22276	 -0.04877	  1.26814	704.79602	 24.50	
 20.403	-97.332	  0.98004	  0.35959	  0.54309	 -0.17148	  1.23470	 -0.04575	  1.26939	704.93903	 24.50	
 20.392	-92.440	  0.98320	  0.42007	  0.48156	 -0.17599	  1.24273	 -0.04512	  1.27246	704.74500	 24.50	
 20.392	-87.560	  0.98930	  0.48459	  0.42274	 -0.17789	  1.24984	 -0.04360	  1.27919	704.78497	 24.50	
 20.403	-82.668	  0.98285	  0.54255	  0.35948	 -0.17344	  1.23520	 -0.04162	  1.26909	704.77698	 24.50	
 20.394	-77.868	  0.98629	  0.60600	  0.30289	 -0.16540	  1.22608	 -0.04209	  1.27192	704.73401	 24.50	
 20.398	-72.996	  0.98855	  0.66906	  0.24699	 -0.15525	  1.21087	 -0.04236	  1.27266	704.89502	 24.50	
 20.413	-68.100	  0.98885	  0.73065	  0.19359	 -0.14023	  1.18762	 -0.04532	  1.26964	704.75702	 24.50	
 20.403	-63.259	  0.99314	  0.79293	  0.14441	 -0.12119	  1.16263	 -0.04494	  1.27270	704.74597	 24.50	
 20.400	-58.396	  0.99678	  0.85412	  0.09796	 -0.09802	  1.13215	 -0.04695	  1.27495	704.83801	 24.50	
 20.410	-53.489	  0.99834	  0.91153	  0.05294	 -0.07341	  1.09508	 -0.04571	  1.27533	704.82898	 24.50	
 20.408	-48.628	  0.99860	  0.96344	  0.01347	 -0.04317	  1.05014	 -0.04601	  1.27323	704.83899	 24.50	
 20.396	-43.773	  1.00436	  1.01681	 -0.02264	 -0.00876	  1.00618	 -0.04810	  1.27680	704.74298	 24.50	
 20.392	-38.938	  0.99874	  1.05479	 -0.05489	  0.02884	  0.94805	 -0.04703	  1.26770	704.84601	 24.50	
 20.397	-34.097	  1.00425	  1.10057	 -0.08319	  0.06917	  0.89835	 -0.04657	  1.27237	704.84601	 24.50	
 20.405	-29.165	  1.00683	  1.13853	 -0.10919	  0.11342	  0.84220	 -0.04536	  1.27390	704.79901	 24.50	
 20.401	-24.295	  1.00674	  1.16793	 -0.12977	  0.16165	  0.78054	 -0.04369	  1.27056	704.82397	 24.60	
 20.392	-19.504	  1.01296	  1.19744	 -0.14731	  0.21298	  0.72397	 -0.04340	  1.27665	704.73401	 24.60	
 20.410	-14.577	  1.01375	  1.21724	 -0.16255	  0.26588	  0.66044	 -0.04221	  1.27541	704.85999	 24.60	
 20.407	 -9.736	  1.01544	  1.23099	 -0.17049	  0.32318	  0.59835	 -0.04228	  1.27436	704.79901	 24.60	
 20.401	 -4.847	  1.01591	  1.23819	 -0.17583	  0.38116	  0.53542	 -0.04127	  1.27309	704.81598	 24.60	
 20.400	  0.000	  1.01671	  1.24092	 -0.17950	  0.44011	  0.47373	 -0.04142	  1.27247	704.84198	 24.60	
 20.401	  4.847	  1.01978	  1.24061	 -0.17767	  0.50259	  0.41384	 -0.04187	  1.27396	704.87701	 24.60	
 20.407	  9.736	  1.02343	  1.23628	 -0.17245	  0.56608	  0.35625	 -0.04016	  1.27621	704.76001	 24.60	
 20.410	 14.577	  1.01855	  1.21570	 -0.16204	  0.62429	  0.29710	 -0.04103	  1.26832	704.82098	 24.60	
 20.392	 19.504	  1.02623	  1.20309	 -0.14754	  0.69246	  0.24481	 -0.04087	  1.27592	704.87701	 24.60	
 20.401	 24.295	  1.02502	  1.17780	 -0.13115	  0.75054	  0.19393	 -0.04140	  1.27148	704.74298	 24.60	
 20.405	 29.165	  1.03021	  1.15175	 -0.11109	  0.81380	  0.14560	 -0.04341	  1.27752	704.82703	 24.60	
 20.397	 34.097	  1.02948	  1.11400	 -0.08522	  0.87116	  0.09859	 -0.04554	  1.27349	704.89398	 24.60	
 20.392	 38.938	  1.02858	  1.07273	 -0.05723	  0.92409	  0.05853	 -0.04860	  1.27090	704.95300	 24.60	
 20.396	 43.773	  1.02994	  1.02880	 -0.02407	  0.97542	  0.02160	 -0.05020	  1.26988	704.87201	 24.60	
 20.408	 48.628	  1.03211	  0.98218	  0.01106	  1.02606	 -0.01386	 -0.05129	  1.27267	704.91699	 24.60	
 20.410	 53.489	  1.03049	  0.92844	  0.04975	  1.06817	 -0.04472	 -0.04969	  1.27032	704.86902	 24.60	
 20.400	 58.396	  1.03546	  0.87644	  0.09472	  1.11212	 -0.07088	 -0.04927	  1.27433	704.89502	 24.60	
 20.403	 63.259	  1.03245	  0.81548	  0.14044	  1.14228	 -0.09308	 -0.05061	  1.26998	704.82098	 24.60	
 20.413	 68.100	  1.03213	  0.75642	  0.19001	  1.16978	 -0.11096	 -0.04985	  1.26812	704.78003	 24.60	
 20.398	 72.996	  1.03502	  0.69683	  0.24400	  1.19550	 -0.12589	 -0.05046	  1.27184	704.89801	 24.60	
 20.394	 77.868	  1.03647	  0.63555	  0.30056	  1.21438	 -0.13725	 -0.05021	  1.27335	704.73102	 24.60	
 20.403	 82.668	  1.03489	  0.57401	  0.35675	  1.22505	 -0.14490	 -0.05201	  1.27191	704.81500	 24.60	
 20.392	 87.560	  1.03482	  0.51235	  0.41798	  1.22981	 -0.14706	 -0.05294	  1.27013	704.81500	 24.60	
 20.392	 92.440	  1.03624	  0.45265	  0.48085	  1.23299	 -0.14631	 -0.05212	  1.27280	704.75098	 24.60	
 20.403	 97.332	  1.03692	  0.39273	  0.54448	  1.22985	 -0.14253	 -0.04942	  1.27502	704.77698	 24.60	
 20.394	102.132	  1.03419	  0.33548	  0.60547	  1.21698	 -0.13394	 -0.04893	  1.27117	704.85303	 24.60	
 20.398	107.004	  1.03516	  0.28044	  0.67066	  1.20379	 -0.12226	 -0.04855	  1.27291	704.80402	 24.60	
 20.413	111.900	  1.03290	  0.22678	  0.73179	  1.18187	 -0.10748	 -0.04811	  1.27263	704.92603	 24.60	
 20.403	116.741	  1.02846	  0.17702	  0.79047	  1.15267	 -0.08893	 -0.05162	  1.27062	704.82397	 24.60	
 20.400	121.604	  1.02741	  0.12938	  0.84988	  1.12102	 -0.06687	 -0.05206	  1.27131	704.94800	 24.60	
 20.410	126.511	  1.02548	  0.08538	  0.90674	  1.08349	 -0.04034	 -0.05536	  1.27158	704.85602	 24.60	
 20.408	131.372	  1.02150	  0.04537	  0.95792	  1.03806	 -0.00915	 -0.05469	  1.26826	704.92603	 24.60	
 20.396	136.227	  1.02387	  0.01016	  1.01154	  0.99530	  0.02634	 -0.05299	  1.27398	704.89502	 24.60	
 20.392	141.062	  1.02051	 -0.02348	  1.05646	  0.94385	  0.06253	 -0.05382	  1.27272	704.93201	 24.60	
 20.397	145.903	  1.01758	 -0.05328	  1.09689	  0.88946	  0.10359	 -0.05314	  1.27256	704.94800	 24.60	
 20.405	150.835	  1.01705	 -0.07897	  1.13629	  0.83281	  0.14972	 -0.05171	  1.27451	704.92902	 24.60	
 20.401	155.705	  1.00976	 -0.10007	  1.16136	  0.76923	  0.19731	 -0.05333	  1.26887	704.84698	 24.60	
 20.392	160.496	  1.01048	 -0.11797	  1.18914	  0.71168	  0.24727	 -0.05366	  1.27196	704.80402	 24.60	
 20.410	165.423	  1.00549	 -0.13311	  1.20593	  0.64636	  0.30142	 -0.05531	  1.26996	704.94000	 24.60	
 20.407	170.264	  1.00441	 -0.14431	  1.22141	  0.58491	  0.35742	 -0.05662	  1.27153	704.84698	 24.60	
 20.401	175.153	  0.99998	 -0.14978	  1.22655	  0.52147	  0.41490	 -0.05377	  1.26918	704.94000	 24.60	
  0.141	 45.000	  1.28498	  0.69720	  0.68389	  0.69043	  0.69782	  0.00695	  1.27604	704.98499	 24.60	
  4.001	128.691	  1.27924	  0.60096	  0.76206	  0.78888	  0.58520	  0.00321	  1.27283	704.94000	 24.60	
  4.002	 76.995	  1.28138	  0.72266	  0.63555	  0.81770	  0.56025	  0.00273	  1.27401	704.92603	 24.60	
  4.002	 25.892	  1.28041	  0.82637	  0.54180	  0.73414	  0.63081	  0.00143	  1.27500	705.14697	 24.60	
  4.002	-25.892	  1.27789	  0.82401	  0.54079	  0.60430	  0.76025	 -0.00038	  1.27367	704.95001	 24.60	
  4.002	-76.995	  1.27554	  0.71776	  0.63516	  0.53284	  0.84437	 -0.00078	  1.27416	705.09100	 24.60	
  4.001	-128.691	  1.27466	  0.59493	  0.76353	  0.56021	  0.81328	  0.00096	  1.27391	704.94598	 24.60	
  4.000	180.000	  1.27687	  0.54834	  0.82236	  0.67017	  0.69473	  0.00325	  1.27259	704.98199	 24.60	
  8.000	180.000	  1.24736	  0.37498	  0.95759	  0.64213	  0.66668	 -0.01400	  1.27293	705.04999	 24.60	
  7.991	-152.370	  1.24543	  0.40301	  0.92186	  0.50676	  0.81013	 -0.01271	  1.27371	705.08801	 24.60	
  7.997	-124.550	  1.24217	  0.48840	  0.81781	  0.40495	  0.92512	 -0.01534	  1.27309	705.01202	 24.60	
  8.006	-96.837	  1.24239	  0.61750	  0.67693	  0.35869	  0.97948	 -0.01948	  1.27298	704.93201	 24.60	
  7.988	-69.228	  1.24459	  0.76228	  0.53368	  0.37245	  0.95987	 -0.01973	  1.27244	705.01599	 24.60	
  7.997	-41.563	  1.24722	  0.88908	  0.42189	  0.44378	  0.87296	 -0.01971	  1.27195	704.79602	 24.60	
  8.008	-13.821	  1.24875	  0.96153	  0.35950	  0.56329	  0.73609	 -0.01806	  1.26973	704.94501	 24.60	
  8.008	 13.821	  1.25491	  0.96650	  0.35985	  0.70997	  0.59283	 -0.01639	  1.27253	704.98102	 24.60	
  7.997	 41.563	  1.25950	  0.89687	  0.42178	  0.84558	  0.47359	 -0.01337	  1.27406	705.10303	 24.60	
  7.988	 69.228	  1.26056	  0.77223	  0.53263	  0.93544	  0.39965	 -0.01126	  1.27307	704.97302	 24.60	
  8.006	 96.837	  1.26042	  0.62874	  0.67538	  0.95799	  0.38593	 -0.01226	  1.27438	704.95599	 24.60	
  7.997	124.550	  1.25798	  0.49812	  0.81630	  0.90391	  0.43032	 -0.01301	  1.27387	705.01898	 24.60	
  7.991	152.370	  1.25579	  0.41009	  0.92254	  0.78890	  0.53217	 -0.01212	  1.27620	704.88300	 24.60	
 12.009	161.059	  1.20153	  0.22217	  1.05006	  0.75122	  0.47990	 -0.03382	  1.27601	704.91699	 24.60	
 12.013	142.081	  1.20486	  0.28362	  0.96993	  0.88943	  0.35607	 -0.03484	  1.27380	704.91699	 24.60	
 12.006	123.113	  1.20637	  0.38122	  0.84856	  0.99458	  0.26687	 -0.03558	  1.27078	704.82898	 24.60	
 12.007	104.200	  1.20852	  0.50973	  0.70380	  1.05714	  0.21621	 -0.03401	  1.26981	704.92603	 24.60	
 11.989	 85.301	  1.22094	  0.66160	  0.55810	  1.07702	  0.20837	 -0.03513	  1.28033	704.95001	 24.60	
 12.013	 66.294	  1.21479	  0.80670	  0.41492	  1.03058	  0.23679	 -0.03265	  1.27433	704.94598	 24.60	
 12.012	 47.388	  1.21033	  0.93520	  0.29987	  0.93713	  0.30634	 -0.03481	  1.27148	704.79602	 24.60	
 11.990	 28.440	  1.21075	  1.03381	  0.22119	  0.81282	  0.41231	 -0.03421	  1.27528	704.86401	 24.60	
 11.991	  9.464	  1.20943	  1.08514	  0.18135	  0.66696	  0.54663	 -0.04038	  1.27630	704.81097	 24.70	
 11.991	 -9.464	  1.20526	  1.08251	  0.18220	  0.51866	  0.69607	 -0.04039	  1.27653	704.88397	 24.60	
 11.990	-28.440	  1.20138	  1.02873	  0.22413	  0.38420	  0.84346	 -0.04087	  1.27727	705.02600	 24.70	
 12.012	-47.388	  1.19336	  0.92568	  0.30332	  0.27824	  0.96568	 -0.04405	  1.27315	704.88702	 24.60	
 12.013	-66.294	  1.18966	  0.79238	  0.41839	  0.20953	  1.05455	 -0.04328	  1.27533	704.84399	 24.60	
 11.989	-85.301	  1.18552	  0.64163	  0.55815	  0.18186	  1.09128	 -0.04300	  1.27307	704.92603	 24.70	
 12.007	-104.200	  1.18405	  0.49624	  0.70898	  0.19246	  1.07975	 -0.04106	  1.27355	705.09998	 24.70	
 12.006	-123.113	  1.18148	  0.36932	  0.84993	  0.24263	  1.01436	 -0.03764	  1.27171	704.95599	 24.70	
 12.013	-142.081	  1.18538	  0.27467	  0.96941	  0.33399	  0.90783	 -0.03567	  1.27206	705.03198	 24.70	
 12.009	-161.059	  1.19108	  0.21689	  1.04914	  0.45666	  0.77132	 -0.03607	  1.27470	705.00098	 24.70	
 16.000	180.000	  1.11728	  0.03190	  1.16525	  0.54445	  0.56359	 -0.05645	  1.27534	705.08600	 24.70	
 15.990	-165.604	  1.11014	  0.04510	  1.14341	  0.40243	  0.70965	 -0.05786	  1.27348	704.92902	 24.60	
 16.002	-151.165	  1.10269	  0.08581	  1.08068	  0.27437	  0.85054	 -0.05512	  1.26886	704.93103	 24.70	
 16.002	-136.836	  1.10478	  0.15404	  0.99119	  0.16901	  0.98228	 -0.05772	  1.27522	704.97302	 24.60	
 15.995	-122.439	  1.09859	  0.25048	  0.86365	  0.09187	  1.07855	 -0.05705	  1.26916	704.98199	 24.60	
 15.993	-107.966	  1.10295	  0.37101	  0.72475	  0.04014	  1.15131	 -0.05816	  1.27528	705.03302	 24.60	
 16.005	-93.629	  1.10349	  0.50698	  0.57677	  0.01592	  1.18031	 -0.05634	  1.27434	705.00403	 24.70	
 15.992	-79.234	  1.10564	  0.65514	  0.43420	  0.02647	  1.16835	 -0.05562	  1.27262	704.96002	 24.70	
 16.009	-64.774	  1.11213	  0.80353	  0.30270	  0.05926	  1.12273	 -0.05458	  1.27583	704.90100	 24.60	
 15.997	-50.364	  1.11435	  0.93706	  0.19067	  0.12201	  1.03538	 -0.05606	  1.27362	704.90601	 24.60	
 15.997	-36.045	  1.11898	  1.04862	  0.10522	  0.21185	  0.92010	 -0.05440	  1.27382	704.95300	 24.60	
 16.000	-21.597	  1.12506	  1.12834	  0.04858	  0.32743	  0.78477	 -0.05225	  1.27534	704.99402	 24.60	
 16.003	 -7.169	  1.13082	  1.17226	  0.01853	  0.46234	  0.63768	 -0.05139	  1.27697	705.00500	 24.70	
 16.003	  7.169	  1.13818	  1.17874	  0.01675	  0.60805	  0.49387	 -0.05305	  1.28068	705.00098	 24.60	
 16.000	 21.597	  1.13641	  1.13600	  0.04315	  0.75353	  0.35537	 -0.05023	  1.27464	705.03497	 24.60	
 15.997	 36.045	  1.13717	  1.05854	  0.09751	  0.89046	  0.23731	 -0.05191	  1.27185	705.02100	 24.70	
 15.997	 50.364	  1.14074	  0.95220	  0.18168	  1.01040	  0.14462	 -0.05269	  1.27267	704.97101	 24.70	
 16.009	 64.774	  1.13878	  0.81814	  0.29064	  1.09624	  0.07885	 -0.05216	  1.27015	705.00403	 24.70	
 15.992	 79.234	  1.14252	  0.67412	  0.42339	  1.15098	  0.04195	 -0.05541	  1.27306	704.88397	 24.70	
 16.005	 93.629	  1.14291	  0.52610	  0.56997	  1.16521	  0.03375	 -0.05502	  1.27454	704.92297	 24.70	
 15.993	107.966	  1.13924	  0.38841	  0.71957	  1.13405	  0.05958	 -0.05418	  1.27196	705.09698	 24.70	
 15.995	122.439	  1.13858	  0.26708	  0.86571	  1.06971	  0.11209	 -0.05620	  1.27469	704.90302	 24.70	
 16.002	136.836	  1.13000	  0.16354	  0.98810	  0.96491	  0.18761	 -0.05560	  1.27167	704.99402	 24.70	
 16.002	151.165	  1.12428	  0.09222	  1.08235	  0.83664	  0.29300	 -0.05393	  1.27180	704.94501	 24.70	
 15.990	165.604	  1.12064	  0.05030	  1.14323	  0.69269	  0.42275	 -0.05567	  1.27276	705.00098	 24.70	
 20.003	168.362	  1.01946	 -0.12107	  1.21424	  0.61725	  0.34972	 -0.05694	  1.27407	704.91498	 24.70	
 20.008	156.764	  1.02270	 -0.08700	  1.16578	  0.76134	  0.22219	 -0.05458	  1.27194	704.96002	 24.70	
 20.000	145.147	  1.02889	 -0.03071	  1.08803	  0.89901	  0.11304	 -0.05283	  1.27134	705.00800	 24.70	
 19.995	133.545	  1.03715	  0.04633	  0.98519	  1.02106	  0.02470	 -0.05551	  1.27373	705.16998	 24.70	
 20.009	121.926	  1.03766	  0.14167	  0.85496	  1.11506	 -0.04617	 -0.05434	  1.26952	705.03302	 24.70	
 20.005	110.327	  1.04531	  0.25714	  0.71676	  1.18517	 -0.09382	 -0.04962	  1.27460	705.00201	 24.70	
 19.989	 98.733	  1.04976	  0.38816	  0.57188	  1.22457	 -0.12068	 -0.05023	  1.27593	705.08899	 24.70	
 19.999	 87.075	  1.04682	  0.52728	  0.42300	  1.22490	 -0.12623	 -0.05205	  1.27065	705.10303	 24.70	
 19.992	 75.457	  1.05115	  0.67393	  0.28745	  1.20442	 -0.11157	 -0.05235	  1.27597	704.97101	 24.70	
 20.009	 63.844	  1.04994	  0.81668	  0.16377	  1.14828	 -0.07573	 -0.05218	  1.27622	704.91699	 24.70	
 19.989	 52.269	  1.04305	  0.94241	  0.05839	  1.05558	 -0.01650	 -0.04926	  1.27007	705.07001	 24.70	
 19.999	 40.602	  1.04194	  1.05730	 -0.02680	  0.94464	  0.06363	 -0.04970	  1.27265	705.04901	 24.70	
 20.004	 29.051	  1.03728	  1.14407	 -0.09157	  0.81193	  0.16232	 -0.04506	  1.27074	704.93402	 24.70	
 20.005	 17.433	  1.03081	  1.20009	 -0.13432	  0.66771	  0.27910	 -0.04194	  1.26779	705.09698	 24.70	
 20.006	  5.780	  1.03266	  1.23631	 -0.15712	  0.52405	  0.41409	 -0.04266	  1.27528	704.95001	 24.70	
 20.006	 -5.780	  1.02733	  1.23198	 -0.15572	  0.38135	  0.55572	 -0.04271	  1.27422	704.94000	 24.70	
 20.005	-17.433	  1.02245	  1.19862	 -0.13446	  0.24791	  0.70150	 -0.04167	  1.27305	705.04901	 24.70	
 20.004	-29.051	  1.01833	  1.13513	 -0.09108	  0.13036	  0.84251	 -0.04661	  1.27347	704.99298	 24.70	
 19.999	-40.602	  1.01276	  1.04201	 -0.02622	  0.03259	  0.96989	 -0.04705	  1.27132	704.90302	 24.70	
 19.989	-52.269	  1.00365	  0.91874	  0.05973	 -0.04666	  1.07419	 -0.04567	  1.26496	704.84998	 24.70	
 20.009	-63.844	  1.00583	  0.79042	  0.16575	 -0.10339	  1.16330	 -0.04279	  1.27315	704.82202	 24.70	
 19.992	-75.457	  0.99889	  0.64348	  0.28802	 -0.13954	  1.21271	 -0.04142	  1.26923	705.08899	 24.70	
 19.999	-87.075	  1.00127	  0.50022	  0.42640	 -0.15543	  1.24195	 -0.04366	  1.27667	705.01599	 24.70	
 19.989	-98.733	  0.99650	  0.35744	  0.57197	 -0.14865	  1.23207	 -0.04816	  1.27392	704.98700	 24.70	
 20.005	-110.327	  0.98905	  0.22689	  0.71271	 -0.12069	  1.18771	 -0.05241	  1.26632	704.95001	 24.70	
 20.009	-121.926	  0.99261	  0.11573	  0.85474	 -0.07177	  1.12305	 -0.05501	  1.27085	705.06403	 24.70	
 19.995	-133.545	  0.99606	  0.02476	  0.98178	  0.00019	  1.02875	 -0.05455	  1.27134	705.01599	 24.70	
 20.000	-145.147	  0.99700	 -0.04809	  1.08526	  0.09091	  0.90706	 -0.05691	  1.27038	705.10602	 24.70	
 20.008	-156.764	  0.99784	 -0.09810	  1.15979	  0.20165	  0.76941	 -0.05290	  1.26638	705.03900	 24.70	
 20.003	-168.362	  1.00652	 -0.12704	  1.21131	  0.32941	  0.62982	 -0.05198	  1.27185	705.13702	 24.70	
 20.000	180.000	  1.01148	 -0.13357	  1.22574	  0.46939	  0.48601	 -0.05229	  1.27163	705.08600	 24.70	
