FileType=PCF
NHL=14
Date=03/06/19	13:31:27
Facility=APL
Serial=16071-12
Customer=NASA
NP=6
Mach=0.036000
Calibration=1:1
CalPts=490
TstPts=95
PortNumbering=AP Standard
Units=Torr C m/s kg/m^3 deg mm 
Theta[deg]	Phi[deg]	P1[Torr]	P2[Torr]	P3[Torr]	P4[Torr]	P5[Torr]	P6[Torr]	Pt[Torr]	Ps[Abs,Torr]	Ts[C]	
  0.000	  0.000	  0.70606	  0.32151	  0.32028	  0.33906	  0.30640	  0.04471	  0.70374	709.59003	 20.40	
  1.691	128.401	  0.70396	  0.29688	  0.34051	  0.35890	  0.28045	  0.04484	  0.70021	709.41998	 20.40	
  1.692	 77.194	  0.70385	  0.32248	  0.31238	  0.36556	  0.27535	  0.04687	  0.70136	709.57001	 20.40	
  1.699	 26.182	  0.70425	  0.34489	  0.29421	  0.34727	  0.29204	  0.04360	  0.70162	709.57001	 20.40	
  1.699	-26.182	  0.70587	  0.34582	  0.29354	  0.32183	  0.31949	  0.04237	  0.70216	709.56000	 20.40	
  1.692	-77.194	  0.70599	  0.32549	  0.31327	  0.30814	  0.33682	  0.03920	  0.70340	709.53998	 20.40	
  1.691	-128.401	  0.70415	  0.29883	  0.33808	  0.31078	  0.32940	  0.03714	  0.69976	709.56000	 20.40	
  1.700	180.000	  0.70405	  0.28584	  0.35287	  0.33246	  0.30415	  0.04044	  0.70101	709.62000	 20.40	
  3.400	180.000	  0.70108	  0.24845	  0.38798	  0.32929	  0.30151	  0.03613	  0.69952	709.53003	 20.50	
  3.388	-152.325	  0.70030	  0.25627	  0.37842	  0.29852	  0.33336	  0.03321	  0.69797	709.53998	 20.40	
  3.397	-124.529	  0.69670	  0.27543	  0.35261	  0.27602	  0.35751	  0.03444	  0.69523	709.70001	 20.50	
  3.399	-96.763	  0.70457	  0.30653	  0.32592	  0.26911	  0.37362	  0.03376	  0.70228	709.51001	 20.50	
  3.394	-69.283	  0.70369	  0.33777	  0.29370	  0.27251	  0.36852	  0.03473	  0.70085	709.59998	 20.50	
  3.400	-41.398	  0.70295	  0.36604	  0.26791	  0.28800	  0.35000	  0.03853	  0.69998	709.58002	 20.50	
  3.401	-14.021	  0.70654	  0.38355	  0.25703	  0.31665	  0.32070	  0.04224	  0.70443	709.54999	 20.50	
  3.401	 14.021	  0.69852	  0.37855	  0.25377	  0.34548	  0.28418	  0.04442	  0.69606	709.48999	 20.50	
  3.400	 41.398	  0.69938	  0.36267	  0.26829	  0.37584	  0.25840	  0.04508	  0.69677	709.46997	 20.50	
  3.394	 69.283	  0.69811	  0.33274	  0.29108	  0.39445	  0.24160	  0.04529	  0.69647	709.57001	 20.50	
  3.399	 96.763	  0.70228	  0.30161	  0.32466	  0.40129	  0.23804	  0.04296	  0.70025	709.59003	 20.50	
  3.397	124.529	  0.69995	  0.27191	  0.35666	  0.38824	  0.24853	  0.04255	  0.70051	709.41998	 20.50	
  3.388	152.325	  0.70461	  0.25378	  0.38243	  0.36350	  0.27181	  0.03937	  0.70362	709.46002	 20.50	
  5.099	161.165	  0.69869	  0.21212	  0.41932	  0.35888	  0.26467	  0.03263	  0.70074	709.56000	 20.50	
  5.109	142.013	  0.68756	  0.22251	  0.39619	  0.38690	  0.23401	  0.03628	  0.69077	709.46997	 20.50	
  5.095	123.033	  0.69456	  0.24777	  0.37267	  0.41599	  0.21530	  0.03907	  0.69855	709.53003	 20.50	
  5.105	104.191	  0.69268	  0.27677	  0.33738	  0.42982	  0.20251	  0.04122	  0.69593	709.48999	 20.50	
  5.093	 85.207	  0.69633	  0.31206	  0.30383	  0.43486	  0.20120	  0.04285	  0.70023	709.56000	 20.50	
  5.104	 66.290	  0.69635	  0.34562	  0.27129	  0.42710	  0.20697	  0.04308	  0.69760	709.56000	 20.60	
  5.094	 47.331	  0.69813	  0.37764	  0.24606	  0.40671	  0.22426	  0.04263	  0.69904	709.45001	 20.60	
  5.089	 28.397	  0.69948	  0.40175	  0.22649	  0.37757	  0.25037	  0.04196	  0.70093	709.48999	 20.60	
  5.096	  9.576	  0.69927	  0.41558	  0.21562	  0.34332	  0.28215	  0.03901	  0.70003	709.48999	 20.60	
  5.096	 -9.576	  0.69788	  0.41488	  0.21678	  0.30918	  0.31656	  0.03715	  0.69748	709.56000	 20.60	
  5.089	-28.397	  0.70276	  0.40655	  0.22682	  0.28127	  0.35184	  0.03357	  0.70152	709.64001	 20.60	
  5.094	-47.331	  0.69797	  0.38145	  0.24345	  0.25417	  0.37791	  0.03102	  0.69652	709.59998	 20.60	
  5.104	-66.290	  0.69753	  0.35059	  0.27099	  0.23670	  0.39926	  0.02800	  0.69650	709.56000	 20.60	
  5.093	-85.207	  0.70125	  0.31949	  0.30373	  0.23226	  0.41042	  0.02606	  0.70136	709.57001	 20.60	
  5.105	-104.191	  0.69771	  0.28357	  0.33714	  0.23214	  0.40448	  0.02699	  0.69828	709.57001	 20.60	
  5.095	-123.033	  0.69605	  0.25449	  0.36882	  0.24420	  0.39022	  0.02821	  0.69676	709.65002	 20.60	
  5.109	-142.013	  0.69739	  0.23085	  0.39814	  0.26429	  0.36546	  0.02805	  0.70039	709.57001	 20.60	
  5.099	-161.165	  0.70401	  0.21781	  0.41952	  0.29521	  0.33590	  0.02797	  0.70685	709.41998	 20.60	
  5.100	180.000	  0.69636	  0.20831	  0.42322	  0.32404	  0.29994	  0.03020	  0.70023	709.48999	 20.60	
  6.800	180.000	  0.68998	  0.16907	  0.45692	  0.31738	  0.29415	  0.02427	  0.69947	709.56000	 20.60	
  6.796	-166.229	  0.69667	  0.17502	  0.45464	  0.28938	  0.32790	  0.02029	  0.70615	709.57001	 20.60	
  6.808	-152.311	  0.68835	  0.18505	  0.43527	  0.25549	  0.35840	  0.01734	  0.69723	709.54999	 20.60	
  6.795	-138.383	  0.68918	  0.20320	  0.41331	  0.23066	  0.38940	  0.01511	  0.69687	709.62000	 20.70	
  6.792	-124.591	  0.69666	  0.22834	  0.39074	  0.21433	  0.41747	  0.01655	  0.70409	709.52002	 20.70	
  6.787	-110.754	  0.69390	  0.25597	  0.35449	  0.19933	  0.43181	  0.01541	  0.69951	709.65997	 20.70	
  6.800	-96.985	  0.69572	  0.28823	  0.32320	  0.19229	  0.44481	  0.01473	  0.70051	709.65997	 20.70	
  6.800	-83.015	  0.69254	  0.32079	  0.28717	  0.19167	  0.44215	  0.01596	  0.69811	709.57001	 20.70	
  6.787	-69.246	  0.69516	  0.35560	  0.25654	  0.19975	  0.43475	  0.01983	  0.70062	709.57001	 20.70	
  6.792	-55.409	  0.69162	  0.38532	  0.22614	  0.21161	  0.41450	  0.02245	  0.69616	709.57001	 20.70	
  6.795	-41.617	  0.69341	  0.41260	  0.20473	  0.23060	  0.39241	  0.02308	  0.69743	709.71997	 20.70	
  6.808	-27.689	  0.69400	  0.43412	  0.18699	  0.25676	  0.36188	  0.02700	  0.69875	709.65997	 20.70	
  6.796	-13.771	  0.69609	  0.44856	  0.17815	  0.28784	  0.32985	  0.03040	  0.70171	709.56000	 20.70	
  6.800	  0.000	  0.69665	  0.45304	  0.17395	  0.32056	  0.29502	  0.03224	  0.70192	709.54999	 20.70	
  6.796	 13.771	  0.69375	  0.44630	  0.17889	  0.35413	  0.26030	  0.03689	  0.70002	709.63000	 20.70	
  6.808	 27.689	  0.69438	  0.43278	  0.18876	  0.38771	  0.23028	  0.03827	  0.70242	709.65002	 20.70	
  6.795	 41.617	  0.69240	  0.40914	  0.20553	  0.41748	  0.20450	  0.03911	  0.70029	709.58002	 20.70	
  6.792	 55.409	  0.68857	  0.37949	  0.22776	  0.44019	  0.18368	  0.04055	  0.69735	709.70001	 20.80	
  6.787	 69.246	  0.69337	  0.34983	  0.25758	  0.46043	  0.17225	  0.03961	  0.70310	709.59998	 20.80	
  6.800	 83.015	  0.68567	  0.31215	  0.28684	  0.46606	  0.16326	  0.03928	  0.69671	709.66998	 20.80	
  6.800	 96.985	  0.68742	  0.27853	  0.32143	  0.46605	  0.16269	  0.03837	  0.69809	709.62000	 20.80	
  6.787	110.754	  0.68682	  0.24574	  0.35548	  0.45811	  0.16854	  0.03664	  0.69917	709.60999	 20.80	
  6.792	124.591	  0.68403	  0.21801	  0.38718	  0.43894	  0.18327	  0.03364	  0.69699	709.67999	 20.80	
  6.795	138.383	  0.68706	  0.19624	  0.41670	  0.41552	  0.20277	  0.03129	  0.69941	709.64001	 20.80	
  6.808	152.311	  0.68531	  0.17922	  0.43694	  0.38335	  0.22915	  0.03025	  0.69701	709.72998	 20.80	
  6.796	166.229	  0.69061	  0.17088	  0.45246	  0.35136	  0.26131	  0.02702	  0.70165	709.71997	 20.80	
  8.491	168.704	  0.67737	  0.13073	  0.48243	  0.34375	  0.25155	  0.01954	  0.69830	709.63000	 20.80	
  8.502	157.493	  0.67584	  0.13780	  0.47057	  0.37800	  0.21944	  0.02209	  0.69729	709.62000	 20.80	
  8.494	146.194	  0.68397	  0.15257	  0.45793	  0.41481	  0.19350	  0.02308	  0.70546	709.56000	 20.80	
  8.495	135.039	  0.67919	  0.17108	  0.43090	  0.44259	  0.16876	  0.02515	  0.70211	709.65997	 20.80	
  8.487	123.723	  0.67613	  0.19259	  0.39992	  0.46479	  0.14865	  0.02656	  0.69729	709.56000	 20.80	
  8.492	112.575	  0.67932	  0.22247	  0.36963	  0.48597	  0.13595	  0.02751	  0.70076	709.67999	 20.90	
  8.510	101.220	  0.67777	  0.25236	  0.33281	  0.49561	  0.12715	  0.03136	  0.69870	709.69000	 20.90	
  8.500	 90.000	  0.67853	  0.28658	  0.29844	  0.49999	  0.12471	  0.03352	  0.69917	709.60999	 20.90	
  8.510	 78.780	  0.67884	  0.32102	  0.26421	  0.49636	  0.12692	  0.03511	  0.69815	709.57001	 20.90	
  8.492	 67.425	  0.68119	  0.35842	  0.23156	  0.48645	  0.13633	  0.03513	  0.70013	709.48999	 20.90	
  8.487	 56.277	  0.68219	  0.39153	  0.20513	  0.46819	  0.15076	  0.03530	  0.70058	709.57001	 20.90	
  8.495	 44.961	  0.68347	  0.42192	  0.18090	  0.44424	  0.16861	  0.03507	  0.69955	709.58002	 20.90	
  8.494	 33.806	  0.67972	  0.44357	  0.16063	  0.41310	  0.19191	  0.03515	  0.69568	709.51001	 20.90	
  8.502	 22.507	  0.68632	  0.46715	  0.14715	  0.38360	  0.22111	  0.03325	  0.70270	709.47998	 20.90	
  8.491	 11.296	  0.68156	  0.47480	  0.13854	  0.34602	  0.25232	  0.03178	  0.69597	709.64001	 20.90	
  8.500	  0.000	  0.68643	  0.48365	  0.13505	  0.31327	  0.28807	  0.02736	  0.70051	709.59003	 20.90	
  8.491	-11.296	  0.68454	  0.47915	  0.13719	  0.28019	  0.32103	  0.02558	  0.69801	709.58002	 20.90	
  8.502	-22.507	  0.68640	  0.46961	  0.14575	  0.24796	  0.35733	  0.02053	  0.69972	709.47998	 20.90	
  8.494	-33.806	  0.68864	  0.45179	  0.16045	  0.22033	  0.39185	  0.01703	  0.70115	709.59998	 20.90	
  8.495	-44.961	  0.68403	  0.42615	  0.17913	  0.19769	  0.41694	  0.01600	  0.69696	709.53998	 20.90	
  8.487	-56.277	  0.68962	  0.40007	  0.20415	  0.17904	  0.44539	  0.01158	  0.70221	709.54999	 20.90	
  8.492	-67.425	  0.68878	  0.36637	  0.23262	  0.16463	  0.46398	  0.01064	  0.70180	709.56000	 20.90	
  8.510	-78.780	  0.68918	  0.33217	  0.26392	  0.15581	  0.47624	  0.00894	  0.70216	709.51001	 21.00	
  8.500	-90.000	  0.68542	  0.29625	  0.29589	  0.15289	  0.47774	  0.00773	  0.70053	709.50000	 21.00	
  8.510	-101.220	  0.68663	  0.26239	  0.33155	  0.15503	  0.47552	  0.00455	  0.70122	709.67999	 21.00	
  8.492	-112.575	  0.68646	  0.23111	  0.36654	  0.16381	  0.46341	  0.00682	  0.70200	709.60999	 21.00	
  8.487	-123.723	  0.68745	  0.20305	  0.39910	  0.17771	  0.44540	  0.00667	  0.70158	709.51001	 21.00	
  8.495	-135.039	  0.68138	  0.17637	  0.42631	  0.19474	  0.41792	  0.01020	  0.69848	709.51001	 21.00	
  8.494	-146.194	  0.68380	  0.15833	  0.45278	  0.21856	  0.39096	  0.00968	  0.70215	709.64001	 21.00	
  8.502	-157.493	  0.68109	  0.14251	  0.47043	  0.24585	  0.35766	  0.01314	  0.69955	709.46997	 21.00	
  8.491	-168.704	  0.67984	  0.13320	  0.48243	  0.27653	  0.32263	  0.01544	  0.69827	709.45001	 21.00	
  8.500	180.000	  0.67743	  0.12885	  0.48561	  0.30896	  0.28684	  0.01766	  0.69847	709.53998	 21.00	
 10.200	180.000	  0.66477	  0.08951	  0.51493	  0.29926	  0.27733	  0.00876	  0.69709	709.60999	 21.00	
 10.191	-170.497	  0.66792	  0.09410	  0.51233	  0.26676	  0.31395	  0.00798	  0.69879	709.65002	 21.00	
 10.210	-161.034	  0.66671	  0.10037	  0.50162	  0.23392	  0.34874	  0.00385	  0.69732	709.46997	 21.00	
 10.194	-151.526	  0.66972	  0.11208	  0.48678	  0.20423	  0.38366	  0.00246	  0.69845	709.46997	 21.00	
 10.190	-142.105	  0.67036	  0.13063	  0.46465	  0.17989	  0.41517	 -0.00129	  0.69911	709.48999	 21.00	
 10.215	-132.646	  0.67355	  0.15098	  0.43929	  0.15865	  0.44516	 -0.00176	  0.70149	709.52002	 21.00	
 10.203	-123.092	  0.66744	  0.17511	  0.40388	  0.13943	  0.46571	 -0.00221	  0.69376	709.52002	 21.10	
 10.192	-113.678	  0.67083	  0.20320	  0.37398	  0.12706	  0.48525	 -0.00462	  0.69606	709.54999	 21.10	
 10.208	-104.249	  0.67243	  0.23598	  0.33863	  0.11793	  0.50025	 -0.00452	  0.69750	709.53003	 21.10	
 10.210	-94.801	  0.66942	  0.26747	  0.30195	  0.11319	  0.50343	 -0.00435	  0.69410	709.48999	 21.10	
 10.210	-85.199	  0.67273	  0.30431	  0.26777	  0.11275	  0.50580	 -0.00560	  0.69657	709.63000	 21.10	
 10.208	-75.751	  0.67264	  0.33956	  0.23404	  0.11865	  0.49878	 -0.00113	  0.69556	709.53998	 21.10	
 10.192	-66.322	  0.67929	  0.37697	  0.20466	  0.12868	  0.48960	  0.00005	  0.70193	709.42999	 21.10	
 10.203	-56.908	  0.67753	  0.40881	  0.17774	  0.14194	  0.47054	  0.00421	  0.70095	709.60999	 21.10	
 10.215	-47.354	  0.67308	  0.43601	  0.15312	  0.15989	  0.44303	  0.00600	  0.69551	709.62000	 21.10	
 10.190	-37.895	  0.67909	  0.46602	  0.13321	  0.18308	  0.41820	  0.00706	  0.70169	709.46002	 21.10	
 10.194	-28.474	  0.68311	  0.49006	  0.11732	  0.20954	  0.38832	  0.01140	  0.70693	709.50000	 21.10	
 10.210	-18.966	  0.67472	  0.49997	  0.10488	  0.23820	  0.35011	  0.01438	  0.69853	709.53003	 21.10	
 10.191	 -9.503	  0.67278	  0.50701	  0.09895	  0.27019	  0.31367	  0.01700	  0.69583	709.58002	 21.10	
 10.200	  0.000	  0.67617	  0.51281	  0.09500	  0.30501	  0.27905	  0.02029	  0.70110	709.47998	 21.10	
 10.191	  9.503	  0.67319	  0.50783	  0.09820	  0.33883	  0.24430	  0.02271	  0.69862	709.53998	 21.10	
 10.210	 18.966	  0.67824	  0.50110	  0.10437	  0.37655	  0.21237	  0.02270	  0.70528	709.58002	 21.20	
 10.194	 28.474	  0.67071	  0.47765	  0.11704	  0.40666	  0.18130	  0.02661	  0.69625	709.57001	 21.10	
 10.190	 37.895	  0.67156	  0.45705	  0.13324	  0.43947	  0.15653	  0.02795	  0.70023	709.53003	 21.20	
 10.215	 47.354	  0.67433	  0.43184	  0.15356	  0.47135	  0.13278	  0.02926	  0.70252	709.59003	 21.20	
 10.203	 56.908	  0.66937	  0.39883	  0.17757	  0.49270	  0.11490	  0.02892	  0.69912	709.51001	 21.20	
 10.192	 66.322	  0.66745	  0.36457	  0.20527	  0.50992	  0.10070	  0.02851	  0.69773	709.50000	 21.20	
 10.208	 75.751	  0.66375	  0.32842	  0.23565	  0.52190	  0.09131	  0.02686	  0.69641	709.42999	 21.20	
 10.210	 85.199	  0.66576	  0.29300	  0.27007	  0.52869	  0.08672	  0.02626	  0.69875	709.39001	 21.20	
 10.210	 94.801	  0.66648	  0.25865	  0.30609	  0.53103	  0.08710	  0.02493	  0.70061	709.48999	 21.20	
 10.208	104.249	  0.66375	  0.22458	  0.34021	  0.52202	  0.09153	  0.02336	  0.69872	709.53998	 21.20	
 10.192	113.678	  0.66164	  0.19354	  0.37360	  0.50666	  0.10009	  0.02099	  0.69601	709.59998	 21.20	
 10.203	123.092	  0.66599	  0.16643	  0.40951	  0.49065	  0.11518	  0.01872	  0.70153	709.53998	 21.20	
 10.215	132.646	  0.66305	  0.14216	  0.43904	  0.46432	  0.13262	  0.01880	  0.69767	709.56000	 21.20	
 10.190	142.105	  0.66672	  0.12288	  0.46794	  0.43801	  0.15632	  0.01636	  0.70226	709.65002	 21.20	
 10.194	151.526	  0.66473	  0.10610	  0.48830	  0.40506	  0.18078	  0.01424	  0.70088	709.56000	 21.20	
 10.210	161.034	  0.66836	  0.09446	  0.50729	  0.37285	  0.21088	  0.01166	  0.70207	709.64001	 21.20	
 10.191	170.497	  0.66338	  0.08859	  0.51238	  0.33414	  0.24206	  0.00983	  0.69750	709.62000	 21.20	
 11.899	171.783	  0.64751	  0.05000	  0.53815	  0.32138	  0.23251	 -0.00084	  0.69466	709.56000	 21.20	
 11.890	163.610	  0.64703	  0.05539	  0.52903	  0.35830	  0.19794	  0.00244	  0.69418	709.64001	 21.30	
 11.889	155.445	  0.64729	  0.06425	  0.51667	  0.39327	  0.16786	  0.00450	  0.69639	709.65002	 21.30	
 11.909	147.299	  0.65141	  0.07595	  0.50197	  0.42872	  0.14117	  0.00687	  0.70336	709.62000	 21.30	
 11.902	139.148	  0.64660	  0.09325	  0.47467	  0.45692	  0.11665	  0.01058	  0.69756	709.63000	 21.30	
 11.894	130.867	  0.64736	  0.11345	  0.44672	  0.48595	  0.09488	  0.01020	  0.69794	709.54999	 21.30	
 11.897	122.732	  0.64847	  0.13748	  0.41692	  0.50989	  0.07802	  0.00982	  0.69839	709.62000	 21.30	
 11.903	114.597	  0.64932	  0.16462	  0.38439	  0.53055	  0.06626	  0.01170	  0.69796	709.65997	 21.30	
 11.893	106.346	  0.64730	  0.19531	  0.34721	  0.54247	  0.05717	  0.01523	  0.69636	709.67999	 21.30	
 11.892	 98.155	  0.65120	  0.22862	  0.31251	  0.55442	  0.05083	  0.01590	  0.70024	709.58002	 21.30	
 11.900	 90.000	  0.64839	  0.26168	  0.27643	  0.55525	  0.04915	  0.01653	  0.69492	709.67999	 21.30	
 11.892	 81.845	  0.64891	  0.29642	  0.24111	  0.55162	  0.04988	  0.01769	  0.69508	709.66998	 21.30	
 11.893	 73.654	  0.65451	  0.33588	  0.20936	  0.54828	  0.05736	  0.01939	  0.70010	709.70001	 21.30	
 11.903	 65.403	  0.65660	  0.37306	  0.17854	  0.53517	  0.06685	  0.01985	  0.70215	709.58002	 21.30	
 11.897	 57.268	  0.65621	  0.40522	  0.15242	  0.51496	  0.08070	  0.02052	  0.69968	709.53998	 21.30	
 11.894	 49.133	  0.65539	  0.43704	  0.12664	  0.49070	  0.09745	  0.02139	  0.69756	709.53003	 21.40	
 11.902	 40.852	  0.65681	  0.46658	  0.10515	  0.46555	  0.11592	  0.02081	  0.69910	709.58002	 21.40	
 11.909	 32.701	  0.65933	  0.49269	  0.08818	  0.43348	  0.14371	  0.02113	  0.69991	709.53998	 21.40	
 11.889	 24.555	  0.65979	  0.51121	  0.07522	  0.40089	  0.16998	  0.01918	  0.69899	709.56000	 21.40	
 11.890	 16.390	  0.66170	  0.52843	  0.06304	  0.36881	  0.19764	  0.01690	  0.70108	709.70001	 21.40	
 11.899	  8.217	  0.66267	  0.53790	  0.05593	  0.33122	  0.23227	  0.01072	  0.70071	709.66998	 21.40	
 11.900	  0.000	  0.66043	  0.54026	  0.05504	  0.29430	  0.26782	  0.01241	  0.69877	709.50000	 21.40	
 11.899	 -8.217	  0.66062	  0.53764	  0.05696	  0.26079	  0.30311	  0.01044	  0.69802	709.47998	 21.40	
 11.890	-16.390	  0.66153	  0.53032	  0.06326	  0.22790	  0.34025	  0.00717	  0.69730	709.67999	 21.40	
 11.889	-24.555	  0.66155	  0.51553	  0.07270	  0.19714	  0.37401	  0.00402	  0.69751	709.46002	 21.40	
 11.909	-32.701	  0.66402	  0.49967	  0.08641	  0.17030	  0.40866	  0.00023	  0.70052	709.51001	 21.40	
 11.902	-40.852	  0.66023	  0.47334	  0.10282	  0.14552	  0.43825	 -0.00469	  0.69619	709.46002	 21.40	
 11.894	-49.133	  0.65896	  0.44390	  0.12450	  0.12345	  0.46557	 -0.00818	  0.69481	709.58002	 21.40	
 11.897	-57.268	  0.66131	  0.41564	  0.14880	  0.10643	  0.49202	 -0.01128	  0.69709	709.65997	 21.40	
 11.903	-65.403	  0.66179	  0.38246	  0.17673	  0.09273	  0.51059	 -0.01009	  0.69687	709.59998	 21.40	
 11.893	-73.654	  0.66073	  0.34713	  0.20586	  0.08343	  0.52506	 -0.01381	  0.69794	709.57001	 21.50	
 11.892	-81.845	  0.66141	  0.31070	  0.23857	  0.07576	  0.53382	 -0.01662	  0.69808	709.71997	 21.50	
 11.900	-90.000	  0.65915	  0.27630	  0.27315	  0.07532	  0.53636	 -0.01357	  0.69645	709.63000	 21.50	
 11.892	-98.155	  0.66131	  0.24187	  0.30923	  0.07569	  0.53508	 -0.01519	  0.69934	709.56000	 21.50	
 11.893	-106.346	  0.66389	  0.20957	  0.34658	  0.08165	  0.52880	 -0.01488	  0.70210	709.52002	 21.50	
 11.903	-114.597	  0.65904	  0.17746	  0.37965	  0.09112	  0.51183	 -0.01451	  0.69810	709.54999	 21.50	
 11.897	-122.732	  0.65896	  0.14982	  0.41318	  0.10343	  0.49372	 -0.01484	  0.69977	709.45001	 21.50	
 11.894	-130.867	  0.66000	  0.12400	  0.44537	  0.12008	  0.47176	 -0.01186	  0.70167	709.53003	 21.50	
 11.902	-139.148	  0.65864	  0.10177	  0.47449	  0.14178	  0.44220	 -0.01056	  0.70085	709.59003	 21.50	
 11.909	-147.299	  0.65169	  0.08380	  0.49433	  0.16447	  0.40757	 -0.00783	  0.69431	709.56000	 21.50	
 11.889	-155.445	  0.65169	  0.06893	  0.51332	  0.19090	  0.37357	 -0.00641	  0.69570	709.56000	 21.50	
 11.890	-163.610	  0.64840	  0.05919	  0.52674	  0.22001	  0.33918	 -0.00363	  0.69318	709.59003	 21.50	
 11.899	-171.783	  0.65259	  0.05214	  0.53968	  0.25538	  0.30256	 -0.00187	  0.69855	709.57001	 21.50	
 11.900	180.000	  0.65767	  0.05033	  0.54625	  0.29105	  0.26987	 -0.00141	  0.70359	709.56000	 21.50	
 13.600	180.000	  0.63352	  0.01147	  0.56666	  0.27503	  0.25590	 -0.00969	  0.69665	709.47998	 21.50	
 13.608	-172.853	  0.63673	  0.01438	  0.56641	  0.24283	  0.29263	 -0.01216	  0.69942	709.47998	 21.50	
 13.611	-165.583	  0.63384	  0.01949	  0.55458	  0.20779	  0.32695	 -0.01291	  0.69506	709.56000	 21.60	
 13.601	-158.353	  0.63556	  0.02904	  0.54352	  0.17870	  0.36389	 -0.01454	  0.69650	709.46002	 21.60	
 13.609	-151.210	  0.63512	  0.03995	  0.52470	  0.15080	  0.39657	 -0.01597	  0.69442	709.58002	 21.60	
 13.611	-143.999	  0.63560	  0.05572	  0.50290	  0.12590	  0.42912	 -0.01796	  0.69492	709.65997	 21.60	
 13.601	-136.825	  0.64157	  0.07486	  0.48062	  0.10291	  0.46359	 -0.02126	  0.70033	709.59003	 21.60	
 13.596	-129.640	  0.64213	  0.09750	  0.45228	  0.08493	  0.49018	 -0.02237	  0.69910	709.67999	 21.60	
 13.611	-122.431	  0.64140	  0.12228	  0.41936	  0.06857	  0.51308	 -0.02429	  0.69753	709.65997	 21.60	
 13.604	-115.211	  0.64261	  0.14925	  0.38534	  0.05518	  0.53361	 -0.02472	  0.69719	709.59998	 21.60	
 13.595	-108.042	  0.64732	  0.18023	  0.35264	  0.04638	  0.55042	 -0.02646	  0.70134	709.71002	 21.60	
 13.607	-100.793	  0.64449	  0.21247	  0.31502	  0.04029	  0.55777	 -0.02755	  0.69727	709.64001	 21.60	
 13.601	-93.617	  0.64493	  0.24623	  0.27915	  0.03721	  0.56355	 -0.02834	  0.69789	709.62000	 21.60	
 13.601	-86.383	  0.64662	  0.28208	  0.24524	  0.03716	  0.56505	 -0.02599	  0.69864	709.66998	 21.70	
 13.607	-79.207	  0.64368	  0.31739	  0.20930	  0.04014	  0.55739	 -0.02487	  0.69497	709.60999	 21.70	
 13.595	-71.958	  0.64357	  0.35337	  0.17794	  0.04849	  0.54472	 -0.02352	  0.69338	709.81000	 21.70	
 13.604	-64.789	  0.64538	  0.38847	  0.14934	  0.05767	  0.53244	 -0.01961	  0.69595	709.70001	 21.70	
 13.611	-57.569	  0.64762	  0.42341	  0.12144	  0.07065	  0.51464	 -0.01958	  0.69922	709.71997	 21.70	
 13.596	-50.360	  0.64726	  0.45365	  0.09719	  0.08749	  0.48919	 -0.01834	  0.69754	709.70001	 21.70	
 13.601	-43.175	  0.64636	  0.48180	  0.07643	  0.10608	  0.46235	 -0.01542	  0.69722	709.66998	 21.70	
 13.611	-36.001	  0.64357	  0.50469	  0.05931	  0.12925	  0.43030	 -0.01210	  0.69405	709.73999	 21.70	
 13.609	-28.790	  0.64483	  0.52672	  0.04402	  0.15601	  0.39811	 -0.00697	  0.69534	709.65997	 21.70	
 13.601	-21.647	  0.64776	  0.54465	  0.03294	  0.18420	  0.36508	 -0.00615	  0.69776	709.65002	 21.70	
 13.611	-14.417	  0.64545	  0.55687	  0.02351	  0.21366	  0.32941	 -0.00396	  0.69828	709.58002	 21.70	
 13.608	 -7.147	  0.64522	  0.56334	  0.01918	  0.24722	  0.29304	  0.00202	  0.69686	709.60999	 21.70	
 13.600	  0.000	  0.64474	  0.56601	  0.01782	  0.28198	  0.25629	  0.00486	  0.69762	709.62000	 21.70	
 13.608	  7.147	  0.63962	  0.55789	  0.01971	  0.31413	  0.22189	  0.00704	  0.69335	709.57001	 21.70	
 13.611	 14.417	  0.64395	  0.55338	  0.02528	  0.35309	  0.19008	  0.00919	  0.69716	709.67999	 21.70	
 13.601	 21.647	  0.64267	  0.53914	  0.03294	  0.38750	  0.15769	  0.00948	  0.69772	709.59998	 21.80	
 13.609	 28.790	  0.64005	  0.51989	  0.04396	  0.42002	  0.12949	  0.01006	  0.69520	709.63000	 21.80	
 13.611	 36.001	  0.64095	  0.49640	  0.06041	  0.45394	  0.10464	  0.01106	  0.69718	709.70001	 21.80	
 13.601	 43.175	  0.64059	  0.47303	  0.07680	  0.48468	  0.08204	  0.01090	  0.69939	709.71997	 21.80	
 13.596	 50.360	  0.63447	  0.43863	  0.09931	  0.50605	  0.06399	  0.01226	  0.69184	709.59998	 21.80	
 13.611	 57.569	  0.63778	  0.40893	  0.12473	  0.53311	  0.04663	  0.01217	  0.69681	709.75000	 21.80	
 13.604	 64.789	  0.63740	  0.37505	  0.15150	  0.55295	  0.03338	  0.01082	  0.69747	709.62000	 21.80	
 13.595	 71.958	  0.63403	  0.33907	  0.18084	  0.56560	  0.02308	  0.01114	  0.69540	709.59998	 21.80	
 13.607	 79.207	  0.63360	  0.30313	  0.21267	  0.57658	  0.01659	  0.00818	  0.69791	709.58002	 21.80	
 13.601	 86.383	  0.63193	  0.26626	  0.24594	  0.57958	  0.01341	  0.00877	  0.69596	709.64001	 21.80	
 13.601	 93.617	  0.63166	  0.23211	  0.28109	  0.57980	  0.01384	  0.00817	  0.69715	709.65997	 21.80	
 13.607	100.793	  0.63012	  0.19794	  0.31617	  0.57442	  0.01542	  0.00811	  0.69619	709.60999	 21.80	
 13.595	108.042	  0.63087	  0.16695	  0.35307	  0.56353	  0.02318	  0.00877	  0.69629	709.56000	 21.80	
 13.604	115.211	  0.63004	  0.13735	  0.38750	  0.54940	  0.03142	  0.00588	  0.69742	709.65997	 21.80	
 13.611	122.431	  0.63088	  0.11206	  0.42147	  0.53084	  0.04609	  0.00333	  0.69835	709.53998	 21.80	
 13.596	129.640	  0.63171	  0.08693	  0.45414	  0.50703	  0.06206	 -0.00035	  0.69919	709.53003	 21.90	
 13.601	136.825	  0.62425	  0.06616	  0.47739	  0.47527	  0.08071	  0.00027	  0.69123	709.59003	 21.90	
 13.611	143.999	  0.63263	  0.04919	  0.50923	  0.45052	  0.10471	 -0.00222	  0.69937	709.58002	 21.90	
 13.609	151.210	  0.62779	  0.03470	  0.52617	  0.41463	  0.12947	 -0.00346	  0.69379	709.70001	 21.90	
 13.601	158.353	  0.62904	  0.02401	  0.54392	  0.38117	  0.15689	 -0.00484	  0.69525	709.60999	 21.90	
 13.611	165.583	  0.62701	  0.01625	  0.55342	  0.34442	  0.18704	 -0.00747	  0.69266	709.57001	 21.90	
 13.608	172.853	  0.62967	  0.01131	  0.56248	  0.30932	  0.22121	 -0.01083	  0.69447	709.60999	 21.90	
 15.298	173.587	  0.61270	 -0.02616	  0.58782	  0.29582	  0.20927	 -0.01949	  0.69592	709.58002	 21.90	
 15.291	167.167	  0.61274	 -0.02089	  0.58096	  0.33146	  0.17688	 -0.01944	  0.69689	709.57001	 21.90	
 15.307	160.676	  0.61268	 -0.01549	  0.57120	  0.36632	  0.14537	 -0.01700	  0.69756	709.57001	 21.90	
 15.300	154.261	  0.61229	 -0.00575	  0.55580	  0.40210	  0.11636	 -0.01657	  0.69817	709.63000	 21.90	
 15.288	147.854	  0.61035	  0.00713	  0.53534	  0.43492	  0.08997	 -0.01357	  0.69738	709.60999	 21.90	
 15.293	141.428	  0.61286	  0.02201	  0.51347	  0.46866	  0.06603	 -0.01467	  0.69917	709.65997	 21.90	
 15.299	134.985	  0.61073	  0.03811	  0.48673	  0.49701	  0.04426	 -0.01022	  0.69768	709.54999	 21.90	
 15.305	128.583	  0.60765	  0.06033	  0.45491	  0.52124	  0.02755	 -0.00991	  0.69363	709.57001	 22.00	
 15.309	122.142	  0.61084	  0.08327	  0.42560	  0.54797	  0.01191	 -0.00630	  0.69799	709.59003	 22.00	
 15.304	115.711	  0.60513	  0.10853	  0.38818	  0.56205	 -0.00173	 -0.00453	  0.69118	709.65002	 22.00	
 15.297	109.291	  0.61049	  0.13688	  0.35582	  0.58307	 -0.01164	 -0.00382	  0.69733	709.59998	 22.00	
 15.293	102.897	  0.61189	  0.16911	  0.32277	  0.59519	 -0.01667	 -0.00241	  0.69787	709.60999	 22.00	
 15.293	 96.458	  0.61070	  0.20003	  0.28477	  0.59942	 -0.02175	 -0.00048	  0.69520	709.64001	 22.00	
 15.300	 90.000	  0.61403	  0.23575	  0.25109	  0.60541	 -0.02239	 -0.00125	  0.69772	709.71997	 22.00	
 15.293	 83.542	  0.61253	  0.26957	  0.21594	  0.60063	 -0.02089	 -0.00027	  0.69450	709.62000	 22.00	
 15.293	 77.103	  0.61626	  0.30722	  0.18470	  0.59777	 -0.01613	  0.00131	  0.69809	709.66998	 22.00	
 15.297	 70.709	  0.61423	  0.34105	  0.15252	  0.58459	 -0.00970	  0.00331	  0.69478	709.65002	 22.00	
 15.304	 64.289	  0.61430	  0.37592	  0.12361	  0.56897	 -0.00130	  0.00263	  0.69399	709.60999	 22.00	
 15.309	 57.858	  0.61651	  0.41030	  0.09747	  0.55124	  0.01131	  0.00168	  0.69519	709.63000	 22.00	
 15.305	 51.417	  0.62002	  0.44508	  0.07359	  0.53061	  0.02604	  0.00325	  0.69634	709.67999	 22.10	
 15.299	 45.015	  0.62248	  0.47690	  0.05335	  0.50360	  0.04597	  0.00178	  0.69857	709.71997	 22.10	
 15.293	 38.572	  0.61871	  0.49977	  0.03441	  0.47222	  0.06711	  0.00006	  0.69358	709.60999	 22.10	
 15.288	 32.146	  0.62286	  0.52799	  0.01615	  0.44240	  0.08955	  0.00222	  0.69684	709.69000	 22.10	
 15.300	 25.739	  0.62614	  0.55038	  0.00563	  0.41041	  0.11829	  0.00015	  0.69937	709.59998	 22.10	
 15.307	 19.324	  0.62135	  0.56194	 -0.00428	  0.37365	  0.14635	 -0.00228	  0.69257	709.70001	 22.10	
 15.291	 12.833	  0.62653	  0.57766	 -0.01152	  0.34028	  0.17844	 -0.00420	  0.69749	709.70001	 22.10	
 15.298	  6.413	  0.62603	  0.58424	 -0.01508	  0.30419	  0.21166	 -0.00480	  0.69688	709.69000	 22.10	
 15.300	  0.000	  0.62758	  0.58714	 -0.01589	  0.26967	  0.24656	 -0.00536	  0.69692	709.63000	 22.10	
 15.298	 -6.413	  0.62384	  0.58173	 -0.01498	  0.23609	  0.27809	 -0.00843	  0.69177	709.59998	 22.10	
 15.291	-12.833	  0.62495	  0.57640	 -0.01136	  0.20342	  0.31382	 -0.01175	  0.69242	709.67999	 22.10	
 15.307	-19.324	  0.62612	  0.56714	 -0.00457	  0.17172	  0.35099	 -0.01518	  0.69362	709.67999	 22.10	
 15.300	-25.739	  0.62630	  0.55212	  0.00477	  0.14335	  0.38444	 -0.01952	  0.69309	709.67999	 22.10	
 15.288	-32.146	  0.62560	  0.53325	  0.01726	  0.11773	  0.41797	 -0.02073	  0.69264	709.57001	 22.20	
 15.293	-38.572	  0.62511	  0.50973	  0.03259	  0.09384	  0.44996	 -0.02311	  0.69090	709.76001	 22.20	
 15.299	-45.015	  0.62731	  0.48523	  0.05099	  0.07223	  0.48094	 -0.02711	  0.69287	709.66998	 22.20	
 15.305	-51.417	  0.62561	  0.45689	  0.07028	  0.05389	  0.50592	 -0.03014	  0.69228	709.59003	 22.20	
 15.309	-57.858	  0.62581	  0.42560	  0.09427	  0.03899	  0.52879	 -0.03089	  0.69145	709.71997	 22.20	
 15.304	-64.289	  0.62752	  0.39278	  0.12047	  0.02504	  0.55054	 -0.03343	  0.69519	709.69000	 22.20	
 15.297	-70.709	  0.62958	  0.36025	  0.14951	  0.01705	  0.56576	 -0.03647	  0.69658	709.65997	 22.20	
 15.293	-77.103	  0.62873	  0.32460	  0.17958	  0.00842	  0.57798	 -0.03779	  0.69472	709.72998	 22.20	
 15.293	-83.542	  0.63069	  0.29012	  0.21336	  0.00466	  0.58783	 -0.03246	  0.69937	709.70001	 22.20	
 15.300	-90.000	  0.62513	  0.24995	  0.24632	  0.00133	  0.58552	 -0.03748	  0.69313	709.67999	 22.20	
 15.293	-96.458	  0.62705	  0.21801	  0.28114	  0.00327	  0.58484	 -0.03498	  0.69552	709.70001	 22.20	
 15.293	-102.897	  0.62619	  0.18343	  0.31664	  0.00668	  0.57924	 -0.03249	  0.69574	709.66998	 22.20	
 15.297	-109.291	  0.62307	  0.15319	  0.35116	  0.01325	  0.56606	 -0.03641	  0.69401	709.69000	 22.20	
 15.304	-115.711	  0.61964	  0.12265	  0.38382	  0.02305	  0.54759	 -0.03271	  0.69065	709.64001	 22.20	
 15.309	-122.142	  0.62511	  0.09708	  0.42171	  0.03573	  0.53319	 -0.03399	  0.69723	709.67999	 22.20	
 15.305	-128.583	  0.62067	  0.07188	  0.44982	  0.05032	  0.50739	 -0.03085	  0.69382	709.50000	 22.30	
 15.299	-134.985	  0.62106	  0.05044	  0.48156	  0.06861	  0.48130	 -0.02962	  0.69483	709.53998	 22.30	
 15.293	-141.428	  0.62178	  0.02955	  0.51024	  0.08729	  0.45362	 -0.02685	  0.69829	709.65002	 22.30	
 15.288	-147.854	  0.61689	  0.01389	  0.53007	  0.11133	  0.41861	 -0.02513	  0.69355	709.53998	 22.30	
 15.300	-154.261	  0.61825	  0.00185	  0.55185	  0.13859	  0.38700	 -0.02349	  0.69651	709.69000	 22.30	
 15.307	-160.676	  0.61535	 -0.01002	  0.56681	  0.16560	  0.35004	 -0.02354	  0.69526	709.59998	 22.30	
 15.291	-167.167	  0.61151	 -0.01734	  0.57576	  0.19484	  0.31409	 -0.02090	  0.69207	709.59003	 22.30	
 15.298	-173.587	  0.61429	 -0.02145	  0.58602	  0.22979	  0.27969	 -0.01955	  0.69510	709.65002	 22.30	
 15.300	180.000	  0.61234	 -0.02266	  0.58694	  0.26221	  0.24560	 -0.01696	  0.69394	709.64001	 22.30	
 17.000	180.000	  0.59044	 -0.05818	  0.60646	  0.24723	  0.22937	 -0.03030	  0.69260	709.54999	 22.30	
 16.990	-174.179	  0.59271	 -0.05692	  0.60633	  0.21417	  0.26585	 -0.03112	  0.69510	709.58002	 22.30	
 17.009	-168.383	  0.58954	 -0.05249	  0.59688	  0.18090	  0.29824	 -0.03189	  0.69082	709.59998	 22.30	
 17.000	-162.596	  0.59612	 -0.04882	  0.59245	  0.15044	  0.33645	 -0.03141	  0.69815	709.58002	 22.30	
 16.990	-156.759	  0.59538	 -0.03828	  0.57586	  0.12292	  0.37034	 -0.03058	  0.69359	709.62000	 22.30	
 16.995	-150.919	  0.59393	 -0.02520	  0.55536	  0.09839	  0.40163	 -0.03596	  0.69121	709.59003	 22.30	
 16.988	-145.161	  0.59842	 -0.01222	  0.53723	  0.07476	  0.43530	 -0.03691	  0.69443	709.51001	 22.40	
 17.014	-139.343	  0.60488	  0.00366	  0.51677	  0.05238	  0.47131	 -0.03899	  0.70136	709.56000	 22.40	
 17.007	-133.546	  0.59770	  0.02420	  0.48205	  0.03256	  0.49676	 -0.03675	  0.69267	709.59003	 22.40	
 17.001	-127.699	  0.60365	  0.04366	  0.45814	  0.01528	  0.52685	 -0.04075	  0.69891	709.53003	 22.40	
 17.006	-121.937	  0.60039	  0.06662	  0.42280	  0.00078	  0.54601	 -0.03988	  0.69330	709.45001	 22.40	
 17.002	-116.134	  0.60337	  0.09636	  0.39015	 -0.00795	  0.56529	 -0.04010	  0.69478	709.52002	 22.40	
 17.001	-110.310	  0.60392	  0.12646	  0.35527	 -0.01745	  0.58376	 -0.04286	  0.69463	709.56000	 22.40	
 16.988	-104.517	  0.60675	  0.15752	  0.32028	 -0.02533	  0.59748	 -0.04372	  0.69680	709.56000	 22.40	
 17.008	-98.662	  0.60738	  0.19042	  0.28627	 -0.02929	  0.60695	 -0.04344	  0.69767	709.54999	 22.40	
 16.996	-92.909	  0.61056	  0.22405	  0.25143	 -0.03328	  0.61364	 -0.04350	  0.70024	709.46002	 22.40	
 16.996	-87.091	  0.60667	  0.25510	  0.21512	 -0.03338	  0.60868	 -0.03888	  0.69484	709.59003	 22.40	
 17.012	-81.253	  0.61379	  0.29301	  0.18323	 -0.03044	  0.60800	 -0.04887	  0.69996	709.48999	 22.40	
 16.988	-75.483	  0.60490	  0.32397	  0.14879	 -0.02357	  0.59049	 -0.04788	  0.68955	709.53998	 22.40	
 17.001	-69.690	  0.60987	  0.36434	  0.12338	 -0.01175	  0.58069	 -0.04271	  0.69542	709.52002	 22.40	
 17.002	-63.866	  0.60908	  0.39753	  0.09377	 -0.00887	  0.57163	 -0.04291	  0.69663	709.50000	 22.50	
 17.006	-58.063	  0.60820	  0.42953	  0.06871	  0.00458	  0.54899	 -0.03996	  0.69458	709.47998	 22.50	
 17.001	-52.301	  0.60684	  0.45785	  0.04596	  0.02064	  0.52242	 -0.03281	  0.69124	709.65002	 22.50	
 17.007	-46.454	  0.60208	  0.48504	  0.02446	  0.03872	  0.49364	 -0.03169	  0.68707	709.59003	 22.50	
 17.014	-40.657	  0.60938	  0.51753	  0.00680	  0.05785	  0.47038	 -0.02758	  0.69549	709.60999	 22.50	
 16.988	-34.839	  0.60629	  0.53992	 -0.00944	  0.08046	  0.43583	 -0.03026	  0.69168	709.59003	 22.50	
 16.995	-29.081	  0.61332	  0.56630	 -0.02396	  0.10512	  0.40952	 -0.02905	  0.70166	709.48999	 22.50	
 16.990	-23.241	  0.61061	  0.58171	 -0.03269	  0.13189	  0.37380	 -0.02485	  0.69825	709.53003	 22.50	
 17.000	-17.404	  0.60546	  0.58995	 -0.04171	  0.15942	  0.33542	 -0.02184	  0.69108	709.50000	 22.50	
 17.009	-11.617	  0.60731	  0.60051	 -0.04719	  0.19129	  0.30016	 -0.02117	  0.69441	709.46002	 22.50	
 16.990	 -5.821	  0.60868	  0.60690	 -0.05029	  0.22492	  0.26603	 -0.01451	  0.69613	709.50000	 22.50	
 17.000	  0.000	  0.60323	  0.60785	 -0.05644	  0.25625	  0.22648	 -0.01754	  0.69348	709.48999	 22.50	
 16.990	  5.821	  0.60457	  0.60573	 -0.05121	  0.29253	  0.19456	 -0.01441	  0.69472	709.58002	 22.50	
 17.009	 11.617	  0.60491	  0.59948	 -0.04912	  0.32566	  0.16404	 -0.01482	  0.69558	709.53003	 22.50	
 17.000	 17.404	  0.60787	  0.59157	 -0.04026	  0.36155	  0.13793	 -0.00989	  0.69997	709.54999	 22.50	
 16.990	 23.241	  0.60058	  0.56762	 -0.02956	  0.39218	  0.10809	 -0.00757	  0.69017	709.50000	 22.60	
 16.995	 29.081	  0.59896	  0.54879	 -0.02043	  0.42709	  0.07682	 -0.00925	  0.69162	709.58002	 22.60	
 16.988	 34.839	  0.60288	  0.53112	 -0.00633	  0.46137	  0.05560	 -0.00722	  0.69687	709.50000	 22.60	
 17.014	 40.657	  0.59817	  0.50173	  0.01178	  0.48839	  0.03445	 -0.00671	  0.69084	709.60999	 22.60	
 17.007	 46.454	  0.59274	  0.47185	  0.02490	  0.51533	  0.01134	 -0.00979	  0.68834	709.59003	 22.60	
 17.001	 52.301	  0.59457	  0.44199	  0.04955	  0.54172	 -0.00328	 -0.00999	  0.69166	709.60999	 22.60	
 17.006	 58.063	  0.59681	  0.41231	  0.07281	  0.56622	 -0.01772	 -0.00760	  0.69471	709.48999	 22.60	
 17.002	 63.866	  0.59313	  0.37695	  0.09795	  0.58438	 -0.02957	 -0.00855	  0.69177	709.46997	 22.60	
 17.001	 69.690	  0.59240	  0.34229	  0.12600	  0.60049	 -0.03997	 -0.01006	  0.69408	709.53998	 22.60	
 16.988	 75.483	  0.59304	  0.30747	  0.15645	  0.61192	 -0.04614	 -0.00755	  0.69434	709.47998	 22.70	
 17.012	 81.253	  0.59408	  0.27350	  0.18771	  0.62011	 -0.04995	 -0.01119	  0.69640	709.54999	 22.70	
 16.996	 87.091	  0.58991	  0.23583	  0.22022	  0.62136	 -0.05270	 -0.00899	  0.69239	709.46997	 22.70	
 16.996	 92.909	  0.58979	  0.20241	  0.25368	  0.62323	 -0.05556	 -0.01106	  0.69496	709.53003	 22.70	
 17.008	 98.662	  0.58745	  0.16998	  0.28751	  0.61773	 -0.05316	 -0.00909	  0.69339	709.46002	 22.70	
 16.988	104.517	  0.58838	  0.13972	  0.32183	  0.60962	 -0.04757	 -0.01271	  0.69337	709.53998	 22.70	
 17.001	110.310	  0.58678	  0.10972	  0.35665	  0.59614	 -0.04051	 -0.01386	  0.69291	709.41998	 22.70	
 17.002	116.134	  0.58772	  0.08284	  0.39210	  0.58108	 -0.03150	 -0.01485	  0.69566	709.52002	 22.70	
 17.006	121.937	  0.58740	  0.05882	  0.42331	  0.56283	 -0.01952	 -0.01462	  0.69569	709.46002	 22.70	
 17.001	127.699	  0.58371	  0.03555	  0.45394	  0.53633	 -0.00490	 -0.01898	  0.69090	709.63000	 22.70	
 17.007	133.546	  0.58746	  0.01512	  0.48596	  0.51434	  0.01146	 -0.01916	  0.69504	709.52002	 22.70	
 17.014	139.343	  0.58541	 -0.00289	  0.51295	  0.48265	  0.03186	 -0.02248	  0.69263	709.46002	 22.70	
 16.988	145.161	  0.59222	 -0.01817	  0.54213	  0.45456	  0.05545	 -0.02035	  0.69932	709.51001	 22.70	
 16.995	150.919	  0.58573	 -0.03148	  0.55775	  0.41946	  0.07722	 -0.02348	  0.69191	709.48999	 22.70	
 16.990	156.759	  0.58924	 -0.04166	  0.57815	  0.38659	  0.10431	 -0.02653	  0.69502	709.46002	 22.70	
 17.000	162.596	  0.58851	 -0.04938	  0.58932	  0.35207	  0.13397	 -0.02688	  0.69312	709.53998	 22.70	
 17.009	168.383	  0.58717	 -0.05508	  0.59833	  0.31582	  0.16353	 -0.02750	  0.69209	709.46002	 22.70	
 16.990	174.179	  0.59263	 -0.05874	  0.60817	  0.28206	  0.19773	 -0.02703	  0.69736	709.48999	 22.70	
 18.709	174.675	  0.56762	 -0.09383	  0.62639	  0.26513	  0.18220	 -0.03661	  0.69523	709.47998	 22.70	
 18.703	169.441	  0.56125	 -0.09204	  0.61716	  0.29639	  0.14806	 -0.03332	  0.68952	709.45001	 22.80	
 18.691	164.085	  0.56486	 -0.08666	  0.61051	  0.33268	  0.11902	 -0.03080	  0.69348	709.40997	 22.80	
 18.706	158.818	  0.56307	 -0.07859	  0.59604	  0.36644	  0.09149	 -0.03215	  0.69096	709.50000	 22.80	
 18.695	153.537	  0.56797	 -0.07014	  0.58770	  0.40470	  0.06531	 -0.03124	  0.69747	709.53003	 22.80	
 18.704	148.255	  0.56629	 -0.05882	  0.56530	  0.43670	  0.03988	 -0.02967	  0.69695	709.58002	 22.80	
 18.698	142.952	  0.57163	 -0.03959	  0.54850	  0.46956	  0.01125	 -0.02947	  0.69866	709.54999	 22.80	
 18.699	137.625	  0.56894	 -0.02666	  0.52112	  0.49878	 -0.01239	 -0.02902	  0.69854	709.48999	 22.80	
 18.705	132.343	  0.56759	 -0.00822	  0.49265	  0.52528	 -0.03038	 -0.02643	  0.69723	709.45001	 22.80	
 18.713	127.067	  0.56498	  0.01215	  0.46037	  0.54956	 -0.04532	 -0.02430	  0.69354	709.42999	 22.80	
 18.700	121.794	  0.56787	  0.03454	  0.43069	  0.57259	 -0.05830	 -0.02495	  0.69503	709.41998	 22.80	
 18.698	116.504	  0.56932	  0.06047	  0.39763	  0.59308	 -0.06886	 -0.02099	  0.69554	709.50000	 22.80	
 18.707	111.165	  0.57305	  0.08616	  0.36504	  0.61547	 -0.08121	 -0.02268	  0.70044	709.48999	 22.80	
 18.690	105.863	  0.56911	  0.11315	  0.32806	  0.62341	 -0.08692	 -0.01863	  0.69429	709.56000	 22.80	
 18.696	100.583	  0.57151	  0.14607	  0.29346	  0.63337	 -0.08993	 -0.01471	  0.69496	709.57001	 22.90	
 18.700	 95.309	  0.57127	  0.17665	  0.26096	  0.63873	 -0.09111	 -0.01692	  0.69391	709.59003	 22.90	
 18.700	 90.000	  0.56912	  0.20793	  0.22383	  0.63837	 -0.09456	 -0.01526	  0.69200	709.48999	 22.90	
 18.700	 84.691	  0.57466	  0.24301	  0.19283	  0.64301	 -0.09567	 -0.01712	  0.69871	709.53998	 22.90	
 18.696	 79.417	  0.57437	  0.27860	  0.16066	  0.63652	 -0.09088	 -0.01658	  0.69646	709.47998	 22.90	
 18.690	 74.137	  0.57719	  0.31392	  0.13173	  0.62931	 -0.08543	 -0.01462	  0.69754	709.46002	 22.90	
 18.707	 68.835	  0.57538	  0.34747	  0.10216	  0.61373	 -0.07705	 -0.01401	  0.69378	709.50000	 22.90	
 18.698	 63.496	  0.57963	  0.38403	  0.07527	  0.60027	 -0.06840	 -0.01573	  0.69766	709.56000	 22.90	
 18.700	 58.206	  0.57662	  0.41556	  0.05040	  0.57737	 -0.05541	 -0.01678	  0.69228	709.53998	 22.90	
 18.713	 52.933	  0.57765	  0.44870	  0.02560	  0.55701	 -0.04328	 -0.01816	  0.69406	709.50000	 22.90	
 18.705	 47.657	  0.57600	  0.47799	  0.00493	  0.52903	 -0.02728	 -0.01559	  0.69076	709.53003	 22.90	
 18.699	 42.375	  0.58083	  0.50927	 -0.01282	  0.50370	 -0.00852	 -0.01535	  0.69357	709.53998	 22.90	
 18.698	 37.048	  0.58015	  0.53257	 -0.02808	  0.47473	  0.00982	 -0.01401	  0.69233	709.58002	 22.90	
 18.704	 31.745	  0.58397	  0.56095	 -0.04594	  0.44661	  0.03042	 -0.01453	  0.69635	709.56000	 23.00	
 18.695	 26.463	  0.57811	  0.57814	 -0.06067	  0.40930	  0.05129	 -0.02095	  0.69262	709.48999	 23.00	
 18.706	 21.182	  0.57877	  0.59534	 -0.07192	  0.37455	  0.07949	 -0.02480	  0.69293	709.56000	 23.00	
 18.691	 15.915	  0.58034	  0.60590	 -0.07380	  0.33861	  0.11325	 -0.01900	  0.68841	709.57001	 23.00	
 18.703	 10.559	  0.58124	  0.61872	 -0.08053	  0.30601	  0.14050	 -0.01751	  0.69065	709.46002	 23.00	
 18.709	  5.325	  0.58712	  0.62960	 -0.08412	  0.27555	  0.17249	 -0.02005	  0.69619	709.50000	 23.00	
 18.700	  0.000	  0.58584	  0.63225	 -0.08689	  0.24016	  0.20486	 -0.02532	  0.69410	709.51001	 23.00	
 18.709	 -5.325	  0.58219	  0.62607	 -0.08508	  0.20592	  0.23590	 -0.02611	  0.68826	709.52002	 23.00	
 18.703	-10.559	  0.59081	  0.62619	 -0.08009	  0.17683	  0.27584	 -0.02285	  0.69549	709.59003	 23.00	
 18.691	-15.915	  0.58707	  0.61268	 -0.07401	  0.14670	  0.30786	 -0.03038	  0.69026	709.47998	 23.00	
 18.706	-21.182	  0.59075	  0.60731	 -0.07056	  0.11487	  0.34360	 -0.03539	  0.69690	709.56000	 23.00	
 18.695	-26.463	  0.59510	  0.59448	 -0.05955	  0.08996	  0.38139	 -0.03432	  0.70034	709.54999	 23.00	
 18.704	-31.745	  0.59096	  0.57358	 -0.04787	  0.06407	  0.41333	 -0.03767	  0.69519	709.41998	 23.00	
 18.698	-37.048	  0.58978	  0.54940	 -0.03334	  0.04141	  0.44622	 -0.03862	  0.69323	709.52002	 23.00	
 18.699	-42.375	  0.58972	  0.52392	 -0.01539	  0.02004	  0.48036	 -0.04192	  0.69390	709.53003	 23.00	
 18.705	-47.657	  0.59005	  0.49663	  0.00236	  0.00122	  0.50772	 -0.03926	  0.69323	709.42999	 23.10	
 18.713	-52.933	  0.58961	  0.46597	  0.02248	 -0.01506	  0.53308	 -0.04512	  0.69231	709.48999	 23.10	
 18.700	-58.206	  0.59193	  0.43578	  0.04676	 -0.02802	  0.55819	 -0.04755	  0.69663	709.53003	 23.10	
 18.698	-63.496	  0.58828	  0.39988	  0.07116	 -0.03880	  0.57455	 -0.04680	  0.69046	709.53998	 23.10	
 18.707	-68.835	  0.58752	  0.36511	  0.09828	 -0.05005	  0.59080	 -0.04579	  0.69056	709.53998	 23.10	
 18.690	-74.137	  0.58862	  0.33166	  0.12608	 -0.05720	  0.60576	 -0.04596	  0.69389	709.56000	 23.10	
 18.696	-79.417	  0.59023	  0.29826	  0.15652	 -0.06235	  0.61655	 -0.04884	  0.69496	709.53003	 23.10	
 18.700	-84.691	  0.58870	  0.26314	  0.18787	 -0.06570	  0.62054	 -0.04505	  0.69490	709.42999	 23.10	
 18.700	-90.000	  0.58667	  0.22778	  0.22057	 -0.06673	  0.62178	 -0.04576	  0.69289	709.59998	 23.10	
 18.700	-95.309	  0.58763	  0.19553	  0.25578	 -0.06614	  0.62125	 -0.04619	  0.69432	709.59003	 23.10	
 18.696	-100.583	  0.58763	  0.16250	  0.29035	 -0.06338	  0.61572	 -0.04794	  0.69537	709.53003	 23.10	
 18.690	-105.863	  0.58344	  0.13227	  0.32260	 -0.05735	  0.60373	 -0.04409	  0.69121	709.57001	 23.10	
 18.707	-111.165	  0.58703	  0.10471	  0.36111	 -0.04902	  0.59406	 -0.04317	  0.69596	709.46002	 23.10	
 18.698	-116.504	  0.58486	  0.07565	  0.39361	 -0.04076	  0.57508	 -0.04451	  0.69355	709.53003	 23.10	
 18.700	-121.794	  0.58114	  0.04945	  0.42538	 -0.03050	  0.55459	 -0.04238	  0.69118	709.57001	 23.10	
 18.713	-127.067	  0.57860	  0.02661	  0.45544	 -0.01724	  0.53086	 -0.04405	  0.69034	709.66998	 23.10	
 18.705	-132.343	  0.57972	  0.00474	  0.48647	 -0.00288	  0.50707	 -0.04322	  0.69268	709.63000	 23.20	
 18.699	-137.625	  0.57792	 -0.01413	  0.51443	  0.01614	  0.47761	 -0.04247	  0.69228	709.64001	 23.20	
 18.698	-142.952	  0.57875	 -0.03084	  0.54123	  0.03604	  0.44788	 -0.03911	  0.69296	709.62000	 23.20	
 18.704	-148.255	  0.57668	 -0.04509	  0.56323	  0.05799	  0.41670	 -0.04142	  0.69260	709.70001	 23.20	
 18.695	-153.537	  0.57827	 -0.05909	  0.58511	  0.08244	  0.38458	 -0.04025	  0.69538	709.64001	 23.20	
 18.706	-158.818	  0.57442	 -0.06856	  0.59940	  0.10903	  0.34813	 -0.03681	  0.69144	709.56000	 23.20	
 18.691	-164.085	  0.57864	 -0.07744	  0.61741	  0.13763	  0.31563	 -0.03611	  0.69918	709.60999	 23.20	
 18.703	-169.441	  0.57421	 -0.08340	  0.62321	  0.16686	  0.27906	 -0.03355	  0.69521	709.56000	 23.20	
 18.709	-174.675	  0.57147	 -0.08681	  0.62775	  0.19676	  0.24448	 -0.03437	  0.69245	709.63000	 23.20	
 18.700	180.000	  0.57249	 -0.08856	  0.63144	  0.23074	  0.20978	 -0.03271	  0.69480	709.59998	 23.20	
 20.400	180.000	  0.54205	 -0.12575	  0.64250	  0.20917	  0.18975	 -0.04055	  0.68947	709.57001	 23.20	
 20.401	-175.153	  0.54320	 -0.12420	  0.64128	  0.17761	  0.22396	 -0.03950	  0.68951	709.60999	 23.20	
 20.407	-170.264	  0.54546	 -0.12111	  0.63742	  0.14603	  0.25882	 -0.04221	  0.69217	709.59003	 23.20	
 20.410	-165.423	  0.54737	 -0.11644	  0.63061	  0.11693	  0.29439	 -0.04218	  0.69293	709.60999	 23.30	
 20.392	-160.496	  0.55063	 -0.10901	  0.61940	  0.08832	  0.33040	 -0.04343	  0.69397	709.52002	 23.30	
 20.401	-155.705	  0.54991	 -0.09853	  0.60244	  0.06325	  0.36364	 -0.04472	  0.69245	709.58002	 23.30	
 20.405	-150.835	  0.54822	 -0.08843	  0.58212	  0.03874	  0.39555	 -0.04750	  0.68947	709.40002	 23.20	
 20.397	-145.903	  0.55182	 -0.07426	  0.56258	  0.01654	  0.43051	 -0.04750	  0.69206	709.46997	 23.30	
 20.392	-141.062	  0.55171	 -0.06013	  0.53800	 -0.00558	  0.46132	 -0.04928	  0.69074	709.57001	 23.30	
 20.396	-136.227	  0.55041	 -0.04195	  0.50996	 -0.02292	  0.48864	 -0.05002	  0.68821	709.53003	 23.30	
 20.408	-131.372	  0.55562	 -0.02510	  0.48530	 -0.03992	  0.51965	 -0.04892	  0.69300	709.54999	 23.30	
 20.410	-126.511	  0.55619	 -0.00229	  0.45428	 -0.05335	  0.54547	 -0.05211	  0.69174	709.54999	 23.30	
 20.400	-121.604	  0.55645	  0.02016	  0.42166	 -0.06766	  0.56795	 -0.04862	  0.69164	709.62000	 23.30	
 20.403	-116.741	  0.55889	  0.04508	  0.38898	 -0.07822	  0.58882	 -0.04928	  0.69387	709.53998	 23.30	
 20.413	-111.900	  0.55584	  0.07106	  0.35286	 -0.08690	  0.60087	 -0.05007	  0.68871	709.58002	 23.30	
 20.398	-107.004	  0.55725	  0.09947	  0.31897	 -0.09323	  0.61530	 -0.04911	  0.68916	709.58002	 23.30	
 20.394	-102.132	  0.56318	  0.13044	  0.28696	 -0.09980	  0.63025	 -0.05065	  0.69570	709.56000	 23.30	
 20.403	-97.332	  0.56235	  0.16079	  0.25174	 -0.10289	  0.63592	 -0.04997	  0.69438	709.51001	 23.30	
 20.392	-92.440	  0.56259	  0.19447	  0.21778	 -0.10355	  0.63866	 -0.05125	  0.69357	709.53998	 23.30	
 20.392	-87.560	  0.56403	  0.22806	  0.18444	 -0.10503	  0.63940	 -0.05139	  0.69424	709.59998	 23.30	
 20.403	-82.668	  0.56286	  0.26101	  0.15223	 -0.10284	  0.63486	 -0.05108	  0.69215	709.62000	 23.40	
 20.394	-77.868	  0.56098	  0.29441	  0.12074	 -0.09806	  0.62537	 -0.05064	  0.68893	709.46002	 23.40	
 20.398	-72.996	  0.56236	  0.32910	  0.09159	 -0.09353	  0.61677	 -0.05445	  0.69077	709.57001	 23.40	
 20.413	-68.100	  0.56464	  0.36524	  0.06463	 -0.08761	  0.60664	 -0.05186	  0.69273	709.56000	 23.40	
 20.403	-63.259	  0.56396	  0.39818	  0.03628	 -0.07838	  0.58758	 -0.05125	  0.69195	709.59998	 23.40	
 20.400	-58.396	  0.56754	  0.43396	  0.01273	 -0.06854	  0.57210	 -0.05200	  0.69640	709.57001	 23.40	
 20.410	-53.489	  0.56360	  0.46438	 -0.00966	 -0.05412	  0.54600	 -0.05070	  0.69272	709.45001	 23.40	
 20.408	-48.628	  0.56694	  0.49759	 -0.03160	 -0.03975	  0.52287	 -0.05039	  0.69776	709.45001	 23.40	
 20.396	-43.773	  0.56507	  0.52340	 -0.04930	 -0.02192	  0.49194	 -0.04697	  0.69436	709.53998	 23.40	
 20.392	-38.938	  0.56597	  0.54991	 -0.06566	 -0.00381	  0.46418	 -0.04897	  0.69528	709.42999	 23.40	
 20.397	-34.097	  0.56236	  0.57068	 -0.07959	  0.01894	  0.42812	 -0.04513	  0.69096	709.48999	 23.40	
 20.405	-29.165	  0.56128	  0.59156	 -0.09318	  0.04224	  0.39328	 -0.04461	  0.69055	709.50000	 23.40	
 20.401	-24.295	  0.56346	  0.61045	 -0.10169	  0.06830	  0.36183	 -0.04189	  0.69285	709.47998	 23.40	
 20.392	-19.504	  0.56201	  0.62331	 -0.11024	  0.09469	  0.32807	 -0.03789	  0.69165	709.48999	 23.40	
 20.410	-14.577	  0.56405	  0.63657	 -0.11585	  0.12453	  0.29332	 -0.03602	  0.69399	709.52002	 23.40	
 20.407	 -9.736	  0.56298	  0.64228	 -0.11975	  0.15385	  0.25986	 -0.03326	  0.69324	709.46002	 23.40	
 20.401	 -4.847	  0.56174	  0.64610	 -0.12256	  0.18563	  0.22448	 -0.03253	  0.69243	709.47998	 23.40	
 20.400	  0.000	  0.56124	  0.64690	 -0.12430	  0.21835	  0.19115	 -0.03052	  0.69379	709.40997	 23.50	
 20.401	  4.847	  0.55848	  0.64152	 -0.12129	  0.25044	  0.15915	 -0.02967	  0.69099	709.40997	 23.50	
 20.407	  9.736	  0.56209	  0.64063	 -0.12004	  0.28708	  0.12647	 -0.02948	  0.69572	709.40002	 23.50	
 20.410	 14.577	  0.55758	  0.62860	 -0.11448	  0.32071	  0.09545	 -0.02663	  0.69265	709.41998	 23.50	
 20.392	 19.504	  0.55962	  0.61737	 -0.10708	  0.35677	  0.06769	 -0.02646	  0.69325	709.42999	 23.50	
 20.401	 24.295	  0.55660	  0.59899	 -0.09863	  0.38901	  0.04104	 -0.02575	  0.69163	709.54999	 23.50	
 20.405	 29.165	  0.55481	  0.57936	 -0.08748	  0.42235	  0.01453	 -0.02587	  0.69018	709.47998	 23.50	
 20.397	 34.097	  0.55597	  0.55887	 -0.07628	  0.45567	 -0.00862	 -0.02591	  0.69366	709.53003	 23.50	
 20.392	 38.938	  0.55388	  0.53379	 -0.06175	  0.48535	 -0.02863	 -0.02812	  0.69210	709.46997	 23.50	
 20.396	 43.773	  0.55414	  0.50713	 -0.04502	  0.51751	 -0.04827	 -0.02573	  0.69361	709.47998	 23.50	
 20.408	 48.628	  0.55592	  0.47961	 -0.02646	  0.54521	 -0.06502	 -0.02752	  0.69577	709.51001	 23.50	
 20.410	 53.489	  0.55244	  0.44664	 -0.00583	  0.56904	 -0.08035	 -0.02585	  0.69385	709.54999	 23.50	
 20.400	 58.396	  0.54820	  0.41115	  0.01717	  0.58743	 -0.09210	 -0.02588	  0.69056	709.62000	 23.50	
 20.403	 63.259	  0.55279	  0.38200	  0.04122	  0.61269	 -0.10349	 -0.02291	  0.69744	709.53998	 23.50	
 20.413	 68.100	  0.54809	  0.34347	  0.06787	  0.62440	 -0.11177	 -0.02243	  0.69150	709.60999	 23.60	
 20.398	 72.996	  0.54512	  0.30721	  0.09489	  0.63568	 -0.11999	 -0.02299	  0.69079	709.53003	 23.60	
 20.394	 77.868	  0.54552	  0.27388	  0.12579	  0.64687	 -0.12466	 -0.02325	  0.69268	709.59003	 23.60	
 20.403	 82.668	  0.54494	  0.24021	  0.15605	  0.65380	 -0.12916	 -0.02588	  0.69431	709.64001	 23.60	
 20.392	 87.560	  0.54492	  0.20628	  0.18837	  0.65617	 -0.13023	 -0.02373	  0.69343	709.70001	 23.60	
 20.392	 92.440	  0.54284	  0.17291	  0.22098	  0.65372	 -0.12921	 -0.02281	  0.69230	709.59003	 23.60	
 20.403	 97.332	  0.54325	  0.14022	  0.25524	  0.65218	 -0.12934	 -0.02561	  0.69390	709.65997	 23.60	
 20.394	102.132	  0.53819	  0.10929	  0.28628	  0.64131	 -0.12679	 -0.02668	  0.68884	709.65997	 23.60	
 20.398	107.004	  0.54098	  0.08019	  0.32254	  0.63509	 -0.12266	 -0.02757	  0.69308	709.70001	 23.60	
 20.413	111.900	  0.54020	  0.05338	  0.35788	  0.62036	 -0.11254	 -0.02823	  0.69264	709.54999	 23.60	
 20.403	116.741	  0.54036	  0.02782	  0.39104	  0.60410	 -0.10404	 -0.02930	  0.69319	709.52002	 23.60	
 20.400	121.604	  0.53925	  0.00326	  0.42370	  0.58328	 -0.09327	 -0.03173	  0.69230	709.54999	 23.60	
 20.410	126.511	  0.53766	 -0.01715	  0.45543	  0.55819	 -0.07822	 -0.03291	  0.68934	709.45001	 23.60	
 20.408	131.372	  0.53731	 -0.03724	  0.48531	  0.53197	 -0.06340	 -0.03197	  0.68876	709.51001	 23.60	
 20.396	136.227	  0.54085	 -0.05467	  0.51674	  0.51007	 -0.04824	 -0.03367	  0.69400	709.59003	 23.60	
 20.392	141.062	  0.53878	 -0.07078	  0.54094	  0.47884	 -0.02901	 -0.03565	  0.69166	709.53998	 23.60	
 20.397	145.903	  0.53895	 -0.08538	  0.56520	  0.44633	 -0.00768	 -0.03649	  0.69146	709.52002	 23.60	
 20.405	150.835	  0.54009	 -0.10048	  0.58861	  0.41650	  0.01093	 -0.03710	  0.69492	709.52002	 23.60	
 20.401	155.705	  0.53860	 -0.11100	  0.60579	  0.38114	  0.03510	 -0.04301	  0.69354	709.58002	 23.70	
 20.392	160.496	  0.53547	 -0.11604	  0.61425	  0.34355	  0.06422	 -0.04271	  0.68733	709.46997	 23.70	
 20.410	165.423	  0.53676	 -0.12205	  0.62712	  0.31111	  0.09230	 -0.04163	  0.68954	709.45001	 23.70	
 20.407	170.264	  0.53836	 -0.12512	  0.63479	  0.27782	  0.12175	 -0.04370	  0.68948	709.57001	 23.70	
 20.401	175.153	  0.54003	 -0.12785	  0.64072	  0.24302	  0.15543	 -0.04503	  0.68903	709.53003	 23.70	
  0.141	 45.000	  0.69818	  0.31897	  0.31546	  0.33907	  0.30136	  0.04720	  0.69330	709.56000	 23.70	
  4.001	128.691	  0.69279	  0.25789	  0.36609	  0.39212	  0.23899	  0.04394	  0.69295	709.59003	 23.70	
  4.002	 76.995	  0.69309	  0.32417	  0.29410	  0.41028	  0.22406	  0.04885	  0.69163	709.53998	 23.70	
  4.002	 25.892	  0.69443	  0.38340	  0.24554	  0.36372	  0.26573	  0.04902	  0.69184	709.65002	 23.70	
  4.002	-25.892	  0.69467	  0.38436	  0.24523	  0.29524	  0.33515	  0.04112	  0.69066	709.48999	 23.70	
  4.002	-76.995	  0.69593	  0.32927	  0.29721	  0.25782	  0.38231	  0.03614	  0.69262	709.46002	 23.70	
  4.001	-128.691	  0.69303	  0.26266	  0.36334	  0.26938	  0.36287	  0.03528	  0.69140	709.57001	 23.70	
  4.000	180.000	  0.69182	  0.23446	  0.39619	  0.32513	  0.29936	  0.04055	  0.69112	709.46997	 23.70	
  8.000	180.000	  0.67684	  0.14286	  0.47415	  0.31037	  0.28509	  0.02376	  0.69083	709.45001	 23.70	
  7.991	-152.370	  0.68208	  0.16263	  0.45547	  0.24202	  0.36645	  0.01882	  0.69601	709.54999	 23.70	
  7.997	-124.550	  0.68203	  0.20978	  0.39533	  0.19129	  0.42651	  0.01402	  0.69246	709.62000	 23.80	
  8.006	-96.837	  0.68669	  0.28273	  0.31909	  0.17154	  0.45784	  0.01294	  0.69418	709.54999	 23.70	
  7.988	-69.228	  0.68219	  0.35718	  0.24190	  0.17281	  0.45066	  0.01695	  0.68984	709.45001	 23.80	
  7.997	-41.563	  0.68646	  0.42867	  0.18527	  0.21541	  0.39981	  0.02414	  0.69441	709.40997	 23.80	
  8.008	-13.821	  0.68432	  0.46667	  0.15321	  0.27849	  0.32563	  0.03146	  0.69326	709.42999	 23.80	
  8.008	 13.821	  0.68366	  0.46771	  0.15188	  0.35537	  0.24624	  0.03701	  0.69426	709.48999	 23.80	
  7.997	 41.563	  0.67743	  0.42103	  0.18374	  0.42783	  0.18096	  0.04078	  0.68921	709.48999	 23.80	
  7.988	 69.228	  0.67694	  0.35043	  0.24156	  0.47643	  0.14326	  0.03986	  0.69108	709.52002	 23.80	
  8.006	 96.837	  0.67671	  0.26961	  0.31870	  0.48708	  0.13367	  0.03678	  0.69312	709.50000	 23.80	
  7.997	124.550	  0.67598	  0.20072	  0.39764	  0.45514	  0.15760	  0.03173	  0.69254	709.50000	 23.80	
  7.991	152.370	  0.67620	  0.15739	  0.45431	  0.39017	  0.21134	  0.03020	  0.69219	709.58002	 23.80	
 12.009	161.059	  0.64601	  0.06177	  0.52771	  0.36754	  0.18707	  0.00597	  0.69213	709.60999	 23.80	
 12.013	142.081	  0.64691	  0.09017	  0.48539	  0.44704	  0.12146	  0.01221	  0.69487	709.59003	 23.80	
 12.006	123.113	  0.64245	  0.14031	  0.41662	  0.50640	  0.07625	  0.01503	  0.69102	709.58002	 23.80	
 12.007	104.200	  0.64501	  0.20645	  0.33805	  0.54398	  0.05076	  0.02077	  0.69228	709.65002	 23.80	
 11.989	 85.301	  0.64900	  0.28688	  0.25619	  0.55487	  0.04458	  0.02028	  0.69615	709.58002	 23.80	
 12.013	 66.294	  0.65119	  0.37059	  0.18183	  0.53359	  0.06055	  0.02307	  0.69465	709.58002	 23.80	
 12.012	 47.388	  0.65009	  0.44433	  0.12044	  0.48294	  0.09512	  0.02239	  0.69073	709.70001	 23.80	
 11.990	 28.440	  0.65535	  0.50472	  0.07958	  0.41365	  0.15125	  0.02185	  0.69405	709.70001	 23.80	
 11.991	  9.464	  0.65733	  0.53528	  0.06074	  0.33308	  0.22396	  0.01768	  0.69294	709.66998	 23.90	
 11.991	 -9.464	  0.65950	  0.53814	  0.06067	  0.25479	  0.30472	  0.01255	  0.69481	709.60999	 23.90	
 11.990	-28.440	  0.66321	  0.51214	  0.08134	  0.18462	  0.38687	  0.00471	  0.69658	709.53003	 23.90	
 12.012	-47.388	  0.65745	  0.45311	  0.11948	  0.12673	  0.45446	  0.00217	  0.68933	709.65997	 23.90	
 12.013	-66.294	  0.66045	  0.38030	  0.18250	  0.09259	  0.50749	 -0.00597	  0.69228	709.66998	 23.90	
 11.989	-85.301	  0.66139	  0.29978	  0.25650	  0.07769	  0.53072	 -0.00920	  0.69455	709.57001	 23.90	
 12.007	-104.200	  0.65531	  0.21898	  0.33617	  0.08030	  0.52079	 -0.01070	  0.69063	709.56000	 23.90	
 12.006	-123.113	  0.65372	  0.14971	  0.41432	  0.10413	  0.48458	 -0.00558	  0.69221	709.59003	 23.90	
 12.013	-142.081	  0.65010	  0.09737	  0.48060	  0.14890	  0.42135	 -0.00246	  0.69021	709.52002	 23.90	
 12.009	-161.059	  0.65612	  0.06438	  0.53130	  0.21194	  0.34886	  0.00209	  0.69920	709.51001	 23.90	
 16.000	180.000	  0.60402	 -0.03406	  0.59714	  0.25563	  0.23262	 -0.01907	  0.69160	709.53998	 23.90	
 15.990	-165.604	  0.60872	 -0.02614	  0.58654	  0.18104	  0.31429	 -0.02301	  0.69396	709.65002	 23.90	
 16.002	-151.165	  0.60763	 -0.00135	  0.54794	  0.11509	  0.39448	 -0.02392	  0.68865	709.59998	 23.90	
 16.002	-136.836	  0.61368	  0.03684	  0.49581	  0.06130	  0.47023	 -0.02730	  0.69309	709.53998	 23.90	
 15.995	-122.439	  0.61153	  0.08898	  0.42293	  0.02305	  0.52614	 -0.02529	  0.68806	709.60999	 23.90	
 15.993	-107.966	  0.61589	  0.15456	  0.34574	 -0.00084	  0.56915	 -0.03163	  0.69059	709.57001	 23.90	
 16.005	-93.629	  0.61956	  0.23019	  0.26421	 -0.01187	  0.58831	 -0.03436	  0.69227	709.50000	 23.90	
 15.992	-79.234	  0.61962	  0.31213	  0.18526	 -0.00623	  0.58133	 -0.03512	  0.69100	709.56000	 24.00	
 16.009	-64.774	  0.62338	  0.39518	  0.11654	  0.01054	  0.55548	 -0.03159	  0.69502	709.57001	 24.00	
 15.997	-50.364	  0.61834	  0.46730	  0.05904	  0.04477	  0.49977	 -0.02758	  0.68918	709.56000	 24.00	
 15.997	-36.045	  0.62061	  0.53047	  0.01587	  0.09098	  0.43627	 -0.02156	  0.69233	709.59003	 24.00	
 16.000	-21.597	  0.61643	  0.57105	 -0.01088	  0.15284	  0.35479	 -0.01355	  0.68808	709.64001	 24.00	
 16.003	 -7.169	  0.61829	  0.59409	 -0.02523	  0.22495	  0.27531	 -0.00866	  0.69080	709.65997	 24.00	
 16.003	  7.169	  0.61698	  0.59266	 -0.02535	  0.30376	  0.19446	 -0.00430	  0.69096	709.57001	 24.00	
 16.000	 21.597	  0.61152	  0.56263	 -0.00875	  0.38209	  0.12318	  0.00328	  0.68789	709.67999	 24.00	
 15.997	 36.045	  0.61293	  0.51857	  0.01891	  0.46057	  0.06121	  0.00135	  0.69069	709.70001	 24.00	
 15.997	 50.364	  0.61219	  0.45528	  0.06277	  0.52744	  0.01558	  0.00014	  0.69316	709.64001	 24.00	
 16.009	 64.774	  0.60821	  0.37576	  0.11978	  0.57558	 -0.01793	  0.00091	  0.69116	709.59998	 24.00	
 15.992	 79.234	  0.60648	  0.29488	  0.18958	  0.60341	 -0.03388	 -0.00080	  0.69230	709.67999	 24.00	
 16.005	 93.629	  0.60059	  0.21292	  0.26592	  0.60503	 -0.03769	  0.00038	  0.68885	709.64001	 24.00	
 15.993	107.966	  0.60142	  0.13949	  0.34832	  0.58976	 -0.02892	 -0.00149	  0.69078	709.63000	 24.00	
 15.995	122.439	  0.59824	  0.07639	  0.42474	  0.54569	 -0.00375	 -0.00639	  0.68862	709.58002	 24.00	
 16.002	136.836	  0.59919	  0.02856	  0.49588	  0.48750	  0.03611	 -0.00795	  0.68997	709.56000	 24.10	
 16.002	151.165	  0.60273	 -0.00750	  0.55220	  0.41722	  0.08946	 -0.01633	  0.69232	709.60999	 24.10	
 15.990	165.604	  0.60325	 -0.02615	  0.58567	  0.33697	  0.15656	 -0.01415	  0.69042	709.69000	 24.10	
 20.003	168.362	  0.54688	 -0.11315	  0.63045	  0.29389	  0.12082	 -0.03961	  0.69036	709.70001	 24.10	
 20.008	156.764	  0.54687	 -0.09990	  0.60540	  0.37570	  0.05281	 -0.03943	  0.69229	709.69000	 24.10	
 20.000	145.147	  0.54505	 -0.07334	  0.55770	  0.45236	 -0.00358	 -0.03719	  0.69019	709.67999	 24.10	
 19.995	133.545	  0.54787	 -0.03801	  0.50212	  0.52496	 -0.04942	 -0.03096	  0.69541	709.71002	 24.10	
 20.009	121.926	  0.54209	  0.00970	  0.42376	  0.57758	 -0.08348	 -0.02721	  0.68778	709.64001	 24.10	
 20.005	110.327	  0.54526	  0.06741	  0.34822	  0.62028	 -0.10698	 -0.02464	  0.69080	709.64001	 24.10	
 19.989	 98.733	  0.54647	  0.13593	  0.26821	  0.64554	 -0.11881	 -0.02201	  0.69154	709.59003	 24.10	
 19.999	 87.075	  0.55131	  0.21414	  0.18914	  0.65384	 -0.12128	 -0.02381	  0.69367	709.60999	 24.10	
 19.992	 75.457	  0.55294	  0.29471	  0.11464	  0.64129	 -0.11625	 -0.02110	  0.69492	709.64001	 24.10	
 20.009	 63.844	  0.54972	  0.37236	  0.04928	  0.60326	 -0.09691	 -0.02357	  0.68687	709.70001	 24.10	
 19.989	 52.269	  0.55549	  0.45204	 -0.00310	  0.55759	 -0.06656	 -0.02196	  0.68919	709.59998	 24.10	
 19.999	 40.602	  0.56070	  0.52362	 -0.04934	  0.49847	 -0.02887	 -0.02853	  0.69499	709.59998	 24.20	
 20.004	 29.051	  0.56353	  0.57984	 -0.07982	  0.42469	  0.02393	 -0.02493	  0.69468	709.71002	 24.20	
 20.005	 17.433	  0.56482	  0.61804	 -0.10275	  0.34501	  0.08525	 -0.02578	  0.69312	709.71997	 24.20	
 20.006	  5.780	  0.56126	  0.63462	 -0.11325	  0.26136	  0.15631	 -0.02894	  0.68676	709.51001	 24.20	
 20.006	 -5.780	  0.56595	  0.63943	 -0.11388	  0.18509	  0.23551	 -0.03542	  0.68987	709.51001	 24.20	
 20.005	-17.433	  0.57011	  0.62562	 -0.10472	  0.11363	  0.31790	 -0.03708	  0.69426	709.62000	 24.20	
 20.004	-29.051	  0.56634	  0.58698	 -0.08259	  0.05143	  0.39544	 -0.04049	  0.68969	709.57001	 24.20	
 19.999	-40.602	  0.56957	  0.53758	 -0.05127	 -0.00042	  0.47253	 -0.04587	  0.69235	709.60999	 24.20	
 19.989	-52.269	  0.57018	  0.47122	 -0.00687	 -0.04101	  0.53878	 -0.05030	  0.69349	709.65997	 24.20	
 20.009	-63.844	  0.56879	  0.39547	  0.04754	 -0.07016	  0.58784	 -0.04867	  0.69186	709.65002	 24.20	
 19.992	-75.457	  0.56812	  0.31469	  0.11136	 -0.08680	  0.61854	 -0.05188	  0.68983	709.65997	 24.20	
 19.999	-87.075	  0.56539	  0.23391	  0.18521	 -0.09318	  0.62946	 -0.04984	  0.68704	709.71997	 24.20	
 19.989	-98.733	  0.56660	  0.15757	  0.26522	 -0.09032	  0.62826	 -0.04719	  0.69019	709.65997	 24.20	
 20.005	-110.327	  0.56397	  0.08608	  0.34501	 -0.07921	  0.60409	 -0.04632	  0.69016	709.59998	 24.30	
 20.009	-121.926	  0.55963	  0.02484	  0.42319	 -0.05761	  0.56145	 -0.04213	  0.68933	709.60999	 24.30	
 19.995	-133.545	  0.55939	 -0.02450	  0.49521	 -0.02388	  0.50591	 -0.04723	  0.69032	709.46997	 24.30	
 20.000	-145.147	  0.55878	 -0.06492	  0.55751	  0.02067	  0.43696	 -0.05134	  0.69254	709.60999	 24.30	
 20.008	-156.764	  0.55205	 -0.09218	  0.59943	  0.07646	  0.35720	 -0.04537	  0.68831	709.58002	 24.30	
 20.003	-168.362	  0.54947	 -0.11026	  0.62722	  0.14052	  0.27452	 -0.04395	  0.68775	709.63000	 24.30	
 20.000	180.000	  0.54906	 -0.11718	  0.63753	  0.21587	  0.19374	 -0.03458	  0.68929	709.65002	 24.30	
