FileType=PCF
NHL=14
Date=03/06/19	14:10:05
Facility=APL
Serial=16071-12
Customer=NASA
NP=6
Mach=0.080000
Calibration=1:1
CalPts=490
TstPts=95
PortNumbering=AP Standard
Units=Torr C m/s kg/m^3 deg mm 
Theta[deg]	Phi[deg]	P1[Torr]	P2[Torr]	P3[Torr]	P4[Torr]	P5[Torr]	P6[Torr]	Pt[Torr]	Ps[Abs,Torr]	Ts[C]	
  0.000	  0.000	  3.19628	  1.36169	  1.40716	  1.43485	  1.32997	  0.06442	  3.18341	709.57001	 25.00	
  1.691	128.401	  3.19337	  1.26322	  1.47227	  1.52948	  1.20626	  0.06325	  3.18348	709.67999	 25.00	
  1.692	 77.194	  3.19365	  1.38081	  1.36786	  1.56452	  1.18371	  0.06721	  3.18244	709.71002	 25.00	
  1.699	 26.182	  3.19294	  1.48702	  1.26968	  1.49302	  1.25817	  0.07240	  3.18032	709.59003	 25.00	
  1.699	-26.182	  3.19509	  1.47903	  1.27226	  1.36451	  1.38511	  0.06579	  3.18225	709.57001	 25.00	
  1.692	-77.194	  3.19367	  1.39209	  1.35033	  1.29036	  1.45226	  0.06274	  3.18102	709.64001	 25.00	
  1.691	-128.401	  3.19548	  1.26330	  1.47426	  1.30932	  1.42647	  0.05942	  3.18357	709.57001	 25.00	
  1.700	180.000	  3.19077	  1.20449	  1.53449	  1.41179	  1.31058	  0.05950	  3.17949	709.51001	 25.00	
  3.400	180.000	  3.18273	  1.02028	  1.70626	  1.38680	  1.29009	  0.04201	  3.18019	709.53998	 25.10	
  3.388	-152.325	  3.18504	  1.06090	  1.66297	  1.25354	  1.44327	  0.04225	  3.18105	709.26001	 25.10	
  3.397	-124.529	  3.19064	  1.15697	  1.55512	  1.15119	  1.56938	  0.04203	  3.18424	709.53003	 25.10	
  3.399	-96.763	  3.19196	  1.29625	  1.40994	  1.10582	  1.62838	  0.04264	  3.18416	709.59003	 25.10	
  3.394	-69.283	  3.19277	  1.45034	  1.26633	  1.12672	  1.60842	  0.04781	  3.18344	709.67999	 25.10	
  3.400	-41.398	  3.19124	  1.57315	  1.15625	  1.20404	  1.52056	  0.05582	  3.18149	709.59003	 25.10	
  3.401	-14.021	  3.19295	  1.64909	  1.09248	  1.33294	  1.37995	  0.06188	  3.18271	709.56000	 25.10	
  3.401	 14.021	  3.19053	  1.64421	  1.09670	  1.48270	  1.22797	  0.06771	  3.18062	709.53003	 25.10	
  3.400	 41.398	  3.18942	  1.56636	  1.15311	  1.60906	  1.10274	  0.06863	  3.18108	709.51001	 25.10	
  3.394	 69.283	  3.18669	  1.43199	  1.26726	  1.69980	  1.02582	  0.06498	  3.18108	709.54999	 25.10	
  3.399	 96.763	  3.18000	  1.28357	  1.40656	  1.72318	  1.00060	  0.05867	  3.17811	709.47998	 25.10	
  3.397	124.529	  3.17677	  1.14312	  1.55204	  1.65808	  1.04563	  0.05103	  3.17645	709.13000	 25.10	
  3.388	152.325	  3.18250	  1.05393	  1.66580	  1.53796	  1.15184	  0.04821	  3.18158	709.44000	 25.10	
  5.099	161.165	  3.16054	  0.85395	  1.84328	  1.52300	  1.11516	  0.02508	  3.17844	708.89001	 25.10	
  5.109	142.013	  3.15764	  0.91671	  1.75843	  1.67526	  0.97832	  0.02870	  3.17850	709.57001	 25.20	
  5.095	123.033	  3.15804	  1.02768	  1.62772	  1.79463	  0.88207	  0.03532	  3.17885	709.57001	 25.20	
  5.105	104.191	  3.16034	  1.16340	  1.47487	  1.87047	  0.82467	  0.03950	  3.17980	709.58002	 25.20	
  5.093	 85.207	  3.16303	  1.32804	  1.31399	  1.88423	  0.81935	  0.04631	  3.17965	709.60999	 25.30	
  5.104	 66.290	  3.16636	  1.49035	  1.16102	  1.84372	  0.84895	  0.05202	  3.17749	709.51001	 25.30	
  5.094	 47.331	  3.17328	  1.63789	  1.03985	  1.74976	  0.93082	  0.05700	  3.18098	709.51001	 25.30	
  5.089	 28.397	  3.17550	  1.74831	  0.95364	  1.61470	  1.04923	  0.05843	  3.17969	709.56000	 25.30	
  5.096	  9.576	  3.17507	  1.81021	  0.90412	  1.45768	  1.19653	  0.05749	  3.17726	709.59998	 25.30	
  5.096	 -9.576	  3.17933	  1.81533	  0.90515	  1.30221	  1.35808	  0.05159	  3.17997	709.53998	 25.30	
  5.089	-28.397	  3.17756	  1.76062	  0.94591	  1.15422	  1.51743	  0.04284	  3.17777	709.60999	 25.30	
  5.094	-47.331	  3.17910	  1.65561	  1.03202	  1.03308	  1.65702	  0.03486	  3.17993	709.57001	 25.30	
  5.104	-66.290	  3.17510	  1.51076	  1.15815	  0.95370	  1.75387	  0.02718	  3.17701	709.51001	 25.30	
  5.093	-85.207	  3.17832	  1.35230	  1.31150	  0.92283	  1.79666	  0.02140	  3.18161	709.48999	 25.40	
  5.105	-104.191	  3.17474	  1.18994	  1.47350	  0.93123	  1.78100	  0.01724	  3.17980	709.51001	 25.40	
  5.095	-123.033	  3.16860	  1.04600	  1.62550	  0.98408	  1.70807	  0.01476	  3.17718	709.53998	 25.40	
  5.109	-142.013	  3.16556	  0.93283	  1.75524	  1.08100	  1.58606	  0.01622	  3.17811	709.51001	 25.40	
  5.099	-161.165	  3.16366	  0.86502	  1.84052	  1.21681	  1.43188	  0.01772	  3.17826	709.57001	 25.40	
  5.100	180.000	  3.16094	  0.83804	  1.87049	  1.36444	  1.27119	  0.01932	  3.17752	709.48999	 25.40	
  6.800	180.000	  3.12905	  0.64628	  2.03040	  1.33073	  1.24103	 -0.00759	  3.17794	709.60999	 25.40	
  6.796	-166.229	  3.13278	  0.66714	  2.00854	  1.18019	  1.40250	 -0.00634	  3.18025	709.65997	 25.40	
  6.808	-152.311	  3.13611	  0.71475	  1.94472	  1.03797	  1.56154	 -0.01198	  3.17950	709.64001	 25.40	
  6.795	-138.383	  3.13706	  0.79885	  1.84046	  0.91539	  1.70731	 -0.01468	  3.17677	709.48999	 25.40	
  6.792	-124.591	  3.14215	  0.91012	  1.71278	  0.82762	  1.82248	 -0.01396	  3.17857	709.48999	 25.40	
  6.787	-110.754	  3.14590	  1.04661	  1.56038	  0.76462	  1.90684	 -0.01385	  3.17792	709.54999	 25.40	
  6.800	-96.985	  3.15033	  1.20064	  1.39978	  0.73406	  1.95079	 -0.01200	  3.17964	709.51001	 25.50	
  6.800	-83.015	  3.14999	  1.36155	  1.23635	  0.73146	  1.95100	 -0.00696	  3.17624	709.56000	 25.50	
  6.787	-69.246	  3.15140	  1.52306	  1.08490	  0.76443	  1.90887	 -0.00065	  3.17675	709.51001	 25.50	
  6.792	-55.409	  3.15447	  1.67462	  0.95251	  0.82621	  1.82780	  0.00432	  3.17928	709.53998	 25.50	
  6.795	-41.617	  3.15342	  1.80131	  0.84423	  0.91969	  1.71215	  0.01274	  3.17752	709.59003	 25.50	
  6.808	-27.689	  3.15517	  1.90317	  0.76503	  1.04517	  1.56737	  0.02086	  3.17967	709.46997	 25.50	
  6.796	-13.771	  3.15467	  1.96300	  0.72078	  1.19258	  1.40542	  0.02909	  3.17769	709.53003	 25.50	
  6.800	  0.000	  3.15329	  1.98210	  0.70630	  1.34698	  1.24480	  0.03468	  3.17969	709.58002	 25.50	
  6.796	 13.771	  3.14995	  1.95517	  0.72370	  1.50634	  1.08663	  0.04000	  3.17732	709.53003	 25.50	
  6.808	 27.689	  3.14806	  1.88952	  0.77221	  1.66160	  0.94399	  0.03943	  3.17821	709.45001	 25.50	
  6.795	 41.617	  3.14742	  1.78356	  0.85633	  1.80338	  0.82378	  0.03983	  3.18022	709.44000	 25.50	
  6.792	 55.409	  3.14036	  1.65073	  0.96363	  1.91205	  0.73276	  0.03998	  3.17737	709.39001	 25.50	
  6.787	 69.246	  3.13765	  1.49550	  1.09591	  1.99570	  0.66647	  0.03503	  3.17901	709.46002	 25.50	
  6.800	 83.015	  3.13133	  1.33350	  1.24417	  2.03651	  0.63296	  0.02916	  3.17694	709.46002	 25.50	
  6.800	 96.985	  3.12709	  1.16960	  1.40393	  2.03351	  0.63090	  0.02394	  3.17665	709.40002	 25.50	
  6.787	110.754	  3.12548	  1.01856	  1.56488	  1.99086	  0.66095	  0.01630	  3.17795	709.44000	 25.50	
  6.792	124.591	  3.12300	  0.88935	  1.71607	  1.90476	  0.72780	  0.00981	  3.17671	709.46997	 25.50	
  6.795	138.383	  3.12487	  0.78215	  1.84591	  1.79015	  0.81903	  0.00650	  3.17891	709.47998	 25.60	
  6.808	152.311	  3.12406	  0.70419	  1.94576	  1.64925	  0.93789	  0.00158	  3.17644	709.25000	 25.60	
  6.796	166.229	  3.12454	  0.65954	  2.00834	  1.49022	  1.08486	 -0.00408	  3.17645	709.44000	 25.60	
  8.491	168.704	  3.08186	  0.46533	  2.16319	  1.45585	  1.03885	 -0.03712	  3.17787	709.40002	 25.60	
  8.502	157.493	  3.07929	  0.49769	  2.11209	  1.61976	  0.88467	 -0.03050	  3.17777	709.54999	 25.60	
  8.494	146.194	  3.07983	  0.56516	  2.02312	  1.77286	  0.75547	 -0.02418	  3.17699	709.41998	 25.60	
  8.495	135.039	  3.07960	  0.65257	  1.90907	  1.90932	  0.64426	 -0.02190	  3.17879	709.48999	 25.60	
  8.487	123.723	  3.08035	  0.76548	  1.76933	  2.02788	  0.55281	 -0.01706	  3.17784	709.45001	 25.60	
  8.492	112.575	  3.08091	  0.89361	  1.61840	  2.11508	  0.48638	 -0.00960	  3.17859	709.39001	 25.60	
  8.510	101.220	  3.08338	  1.04507	  1.45208	  2.17459	  0.44538	 -0.00479	  3.17819	709.33002	 25.60	
  8.500	 90.000	  3.08585	  1.20751	  1.28548	  2.19168	  0.43562	  0.00085	  3.17584	709.33002	 25.60	
  8.510	 78.780	  3.08878	  1.37243	  1.12746	  2.17569	  0.44740	  0.00564	  3.17637	709.39001	 25.60	
  8.492	 67.425	  3.09486	  1.54295	  0.97573	  2.12345	  0.49010	  0.01382	  3.17671	709.46997	 25.60	
  8.487	 56.277	  3.10011	  1.70015	  0.84394	  2.03964	  0.55483	  0.01747	  3.17687	709.51001	 25.60	
  8.495	 44.961	  3.10442	  1.84433	  0.72811	  1.92581	  0.64601	  0.01959	  3.17635	709.39001	 25.60	
  8.494	 33.806	  3.10576	  1.96437	  0.63461	  1.78960	  0.75728	  0.01801	  3.17524	709.47998	 25.60	
  8.502	 22.507	  3.10796	  2.05536	  0.56562	  1.63498	  0.88889	  0.01897	  3.17468	709.50000	 25.70	
  8.491	 11.296	  3.11437	  2.11516	  0.52693	  1.47286	  1.04478	  0.01786	  3.17888	709.46997	 25.70	
  8.500	  0.000	  3.11406	  2.13644	  0.51036	  1.30895	  1.20472	  0.01070	  3.17593	709.39001	 25.70	
  8.491	-11.296	  3.11737	  2.11891	  0.52499	  1.15327	  1.36698	  0.00412	  3.17632	709.44000	 25.70	
  8.502	-22.507	  3.11816	  2.07046	  0.56065	  0.99757	  1.53816	 -0.00354	  3.17748	709.45001	 25.70	
  8.494	-33.806	  3.11617	  1.98309	  0.62673	  0.86084	  1.69682	 -0.01071	  3.17415	709.44000	 25.70	
  8.495	-44.961	  3.11775	  1.86947	  0.71781	  0.75077	  1.83238	 -0.01912	  3.17592	709.48999	 25.70	
  8.487	-56.277	  3.12089	  1.73534	  0.83162	  0.65846	  1.95258	 -0.02588	  3.17968	709.38000	 25.70	
  8.492	-67.425	  3.11790	  1.58042	  0.96353	  0.58820	  2.04254	 -0.03251	  3.17895	709.40002	 25.70	
  8.510	-78.780	  3.11329	  1.41168	  1.11541	  0.54530	  2.09891	 -0.03468	  3.17714	709.40997	 25.70	
  8.500	-90.000	  3.11274	  1.24571	  1.27720	  0.53272	  2.11658	 -0.04308	  3.17854	709.45001	 25.70	
  8.510	-101.220	  3.11052	  1.08387	  1.44236	  0.54624	  2.09727	 -0.04629	  3.17934	709.46997	 25.70	
  8.492	-112.575	  3.10791	  0.92885	  1.61101	  0.58855	  2.03992	 -0.04492	  3.17897	709.35999	 25.70	
  8.487	-123.723	  3.10316	  0.79348	  1.76424	  0.65312	  1.95159	 -0.04305	  3.17818	709.48999	 25.70	
  8.495	-135.039	  3.09425	  0.67501	  1.90144	  0.74102	  1.83151	 -0.04185	  3.17341	709.47998	 25.70	
  8.494	-146.194	  3.09319	  0.58179	  2.01861	  0.85042	  1.69480	 -0.04187	  3.17782	709.39001	 25.70	
  8.502	-157.493	  3.08983	  0.51194	  2.10596	  0.98346	  1.53614	 -0.03788	  3.17755	709.51001	 25.70	
  8.491	-168.704	  3.08550	  0.47120	  2.15985	  1.12984	  1.37058	 -0.03863	  3.17701	709.50000	 25.80	
  8.500	180.000	  3.08162	  0.45435	  2.17930	  1.28861	  1.20198	 -0.03811	  3.17491	709.51001	 25.80	
 10.200	180.000	  3.02747	  0.26623	  2.32137	  1.23956	  1.16009	 -0.07023	  3.17728	709.41998	 25.80	
 10.191	-170.497	  3.02945	  0.27881	  2.30407	  1.07956	  1.32719	 -0.06906	  3.17578	709.41998	 25.80	
 10.210	-161.034	  3.03142	  0.31300	  2.25801	  0.92546	  1.49926	 -0.06752	  3.17488	709.41998	 25.80	
 10.194	-151.526	  3.03922	  0.37321	  2.18216	  0.78768	  1.66497	 -0.06948	  3.17719	709.38000	 25.80	
 10.190	-142.105	  3.04203	  0.45054	  2.07872	  0.66804	  1.81522	 -0.07075	  3.17771	709.34003	 25.80	
 10.215	-132.646	  3.04456	  0.54985	  1.95222	  0.56150	  1.95019	 -0.07117	  3.17528	709.40002	 25.80	
 10.203	-123.092	  3.04686	  0.66921	  1.80420	  0.47524	  2.06831	 -0.06957	  3.17395	709.41998	 25.80	
 10.192	-113.678	  3.05253	  0.80602	  1.64910	  0.41084	  2.16102	 -0.07229	  3.17665	709.45001	 25.80	
 10.208	-104.249	  3.05411	  0.95409	  1.48346	  0.36549	  2.22319	 -0.07580	  3.17367	709.44000	 25.80	
 10.210	-94.801	  3.06184	  1.11994	  1.31404	  0.34562	  2.25821	 -0.07612	  3.17871	709.47998	 25.80	
 10.210	-85.199	  3.06377	  1.28983	  1.14458	  0.34458	  2.25941	 -0.07036	  3.17797	709.47998	 25.80	
 10.208	-75.751	  3.06337	  1.45841	  0.98501	  0.36667	  2.22488	 -0.06483	  3.17518	709.35999	 25.80	
 10.192	-66.322	  3.06508	  1.62411	  0.83924	  0.41286	  2.16298	 -0.06248	  3.17475	709.51001	 25.80	
 10.203	-56.908	  3.06518	  1.77988	  0.70618	  0.47773	  2.07288	 -0.06096	  3.17495	709.45001	 25.80	
 10.215	-47.354	  3.06723	  1.92671	  0.58957	  0.56880	  1.95711	 -0.05482	  3.17594	709.04999	 25.90	
 10.190	-37.895	  3.06685	  2.04987	  0.49539	  0.67897	  1.81906	 -0.04568	  3.17454	708.75000	 25.90	
 10.194	-28.474	  3.06445	  2.14769	  0.41913	  0.80329	  1.66427	 -0.03640	  3.17169	709.45001	 25.90	
 10.210	-18.966	  3.06655	  2.22466	  0.36428	  0.94426	  1.50238	 -0.03008	  3.17625	709.44000	 25.90	
 10.191	 -9.503	  3.06587	  2.26788	  0.33236	  1.10080	  1.33081	 -0.02258	  3.17408	709.46002	 25.90	
 10.200	  0.000	  3.06348	  2.27944	  0.32205	  1.26284	  1.16066	 -0.01362	  3.17352	709.51001	 25.90	
 10.191	  9.503	  3.06012	  2.25864	  0.33522	  1.42937	  0.99640	 -0.00791	  3.17253	709.53003	 25.90	
 10.210	 18.966	  3.05538	  2.21106	  0.36199	  1.59673	  0.83508	 -0.00534	  3.17121	709.45001	 25.90	
 10.194	 28.474	  3.05449	  2.13003	  0.42527	  1.75617	  0.70010	 -0.00462	  3.17268	709.37000	 25.90	
 10.190	 37.895	  3.05184	  2.02436	  0.50198	  1.90596	  0.57425	 -0.00598	  3.17400	709.46002	 25.90	
 10.215	 47.354	  3.04505	  1.89108	  0.59806	  2.03949	  0.46410	 -0.00607	  3.17095	709.45001	 25.90	
 10.203	 56.908	  3.03953	  1.73900	  0.71497	  2.15254	  0.37557	 -0.00822	  3.16887	709.35999	 25.90	
 10.192	 66.322	  3.04125	  1.57941	  0.84930	  2.24465	  0.30635	 -0.01427	  3.17508	709.46002	 25.90	
 10.208	 75.751	  3.03298	  1.40474	  0.99714	  2.29848	  0.26480	 -0.02338	  3.16996	709.41998	 25.90	
 10.210	 85.199	  3.03543	  1.24342	  1.15597	  2.32820	  0.24968	 -0.02419	  3.17227	709.37000	 26.00	
 10.210	 94.801	  3.02913	  1.07124	  1.32361	  2.32258	  0.24735	 -0.02864	  3.16929	709.40997	 26.00	
 10.208	104.249	  3.02567	  0.91205	  1.49035	  2.28674	  0.26915	 -0.03262	  3.16907	709.35999	 26.00	
 10.192	113.678	  3.02300	  0.76645	  1.65266	  2.22487	  0.30966	 -0.04074	  3.16750	709.40997	 26.00	
 10.203	123.092	  3.01812	  0.63305	  1.80751	  2.13731	  0.36853	 -0.04682	  3.16756	709.39001	 26.00	
 10.215	132.646	  3.02229	  0.52599	  1.95587	  2.01807	  0.46722	 -0.04653	  3.17038	709.46997	 26.00	
 10.190	142.105	  3.01718	  0.42781	  2.07957	  1.88027	  0.57023	 -0.05032	  3.16755	709.46002	 26.00	
 10.194	151.526	  3.02090	  0.35658	  2.18196	  1.73228	  0.69598	 -0.05421	  3.17112	709.44000	 26.00	
 10.210	161.034	  3.02071	  0.30620	  2.25691	  1.57154	  0.83919	 -0.05913	  3.17062	709.48999	 26.00	
 10.191	170.497	  3.02494	  0.27724	  2.30230	  1.40585	  0.99490	 -0.06578	  3.17322	709.48999	 26.00	
 11.899	171.783	  2.95457	  0.08653	  2.43393	  1.34983	  0.93808	 -0.10059	  3.17043	709.47998	 26.00	
 11.890	163.610	  2.94869	  0.10920	  2.39276	  1.51879	  0.77421	 -0.09730	  3.16825	709.56000	 26.00	
 11.889	155.445	  2.95280	  0.15268	  2.33181	  1.68446	  0.63447	 -0.08815	  3.17117	709.46002	 26.10	
 11.909	147.299	  2.95292	  0.21668	  2.23816	  1.84479	  0.50246	 -0.08725	  3.17198	709.39001	 26.10	
 11.902	139.148	  2.95437	  0.29512	  2.12695	  1.99329	  0.38531	 -0.08483	  3.17306	709.40997	 26.10	
 11.894	130.867	  2.95544	  0.39255	  1.99733	  2.12443	  0.28881	 -0.08145	  3.17284	709.45001	 26.10	
 11.897	122.732	  2.95766	  0.50806	  1.85055	  2.23793	  0.20678	 -0.07697	  3.17270	709.46997	 26.10	
 11.903	114.597	  2.95886	  0.63619	  1.68820	  2.32975	  0.14150	 -0.07629	  3.17141	709.59998	 26.10	
 11.893	106.346	  2.96158	  0.78273	  1.51899	  2.40305	  0.09200	 -0.06826	  3.17345	709.47998	 26.10	
 11.892	 98.155	  2.96359	  0.93728	  1.35300	  2.44258	  0.06880	 -0.06355	  3.17193	709.42999	 26.10	
 11.900	 90.000	  2.96455	  1.09740	  1.18416	  2.46328	  0.05149	 -0.06331	  3.17344	709.46997	 26.10	
 11.892	 81.845	  2.96709	  1.26683	  1.02456	  2.45186	  0.06232	 -0.05711	  3.17278	709.53003	 26.10	
 11.893	 73.654	  2.96983	  1.44262	  0.86334	  2.41247	  0.09119	 -0.05103	  3.17154	709.45001	 26.10	
 11.903	 65.403	  2.97045	  1.61304	  0.71287	  2.34843	  0.13237	 -0.04568	  3.17009	709.45001	 26.10	
 11.897	 57.268	  2.97847	  1.77643	  0.58585	  2.26079	  0.19942	 -0.04066	  3.17274	709.40997	 26.10	
 11.894	 49.133	  2.97734	  1.92562	  0.46455	  2.15045	  0.27679	 -0.04075	  3.16946	709.38000	 26.10	
 11.902	 40.852	  2.98354	  2.06466	  0.36396	  2.02043	  0.37694	 -0.04104	  3.17213	709.46997	 26.10	
 11.909	 32.701	  2.98606	  2.18799	  0.27679	  1.87169	  0.49698	 -0.03660	  3.17056	709.47998	 26.10	
 11.889	 24.555	  2.99369	  2.28098	  0.22106	  1.71225	  0.64000	 -0.03155	  3.17288	709.46997	 26.10	
 11.890	 16.390	  2.99391	  2.35282	  0.16535	  1.54870	  0.77569	 -0.03461	  3.17242	709.47998	 26.10	
 11.899	  8.217	  2.99767	  2.39666	  0.14099	  1.37933	  0.94031	 -0.03857	  3.17327	709.37000	 26.10	
 11.900	  0.000	  2.99976	  2.41099	  0.13501	  1.20803	  1.10766	 -0.04306	  3.17063	709.40997	 26.10	
 11.899	 -8.217	  3.00163	  2.39970	  0.14628	  1.04464	  1.28074	 -0.05006	  3.17016	709.37000	 26.10	
 11.890	-16.390	  3.00373	  2.36273	  0.17275	  0.89142	  1.45060	 -0.05759	  3.17054	709.53003	 26.10	
 11.889	-24.555	  3.00521	  2.29894	  0.22045	  0.74749	  1.61911	 -0.06381	  3.17196	709.46002	 26.20	
 11.909	-32.701	  3.00314	  2.21370	  0.27765	  0.61449	  1.77770	 -0.07117	  3.17164	709.32001	 26.20	
 11.902	-40.852	  2.99995	  2.09822	  0.35857	  0.49265	  1.92785	 -0.07883	  3.16812	709.40997	 26.20	
 11.894	-49.133	  3.00404	  1.96805	  0.46070	  0.39040	  2.06479	 -0.08650	  3.17273	709.45001	 26.20	
 11.897	-57.268	  3.00227	  1.82337	  0.57429	  0.31066	  2.17372	 -0.08743	  3.17076	709.42999	 26.20	
 11.903	-65.403	  3.00189	  1.66403	  0.70789	  0.24782	  2.26411	 -0.09037	  3.16898	709.45001	 26.20	
 11.893	-73.654	  3.00099	  1.49561	  0.85369	  0.19929	  2.33215	 -0.09010	  3.17053	709.46997	 26.20	
 11.892	-81.845	  3.00058	  1.32413	  1.01001	  0.16976	  2.37902	 -0.09175	  3.17259	709.46997	 26.20	
 11.900	-90.000	  2.99558	  1.15506	  1.17071	  0.15797	  2.39201	 -0.09469	  3.17118	709.40997	 26.20	
 11.892	-98.155	  2.99220	  0.99041	  1.33851	  0.16923	  2.37254	 -0.09768	  3.16976	709.44000	 26.20	
 11.893	-106.346	  2.98554	  0.82157	  1.51436	  0.19241	  2.33169	 -0.09420	  3.16840	709.40997	 26.20	
 11.903	-114.597	  2.98403	  0.67657	  1.68153	  0.24083	  2.26430	 -0.09334	  3.16941	709.44000	 26.20	
 11.897	-122.732	  2.98131	  0.54494	  1.83751	  0.30251	  2.17495	 -0.09375	  3.17089	709.40997	 26.20	
 11.894	-130.867	  2.98114	  0.42619	  1.98867	  0.38493	  2.06205	 -0.09347	  3.17480	709.46002	 26.20	
 11.902	-139.148	  2.97333	  0.31891	  2.12161	  0.48246	  1.92377	 -0.09521	  3.17160	709.46997	 26.20	
 11.909	-147.299	  2.96935	  0.23373	  2.23764	  0.59648	  1.77619	 -0.09441	  3.17252	709.41998	 26.30	
 11.889	-155.445	  2.96668	  0.16684	  2.32884	  0.72389	  1.61512	 -0.09277	  3.17296	709.52002	 26.30	
 11.890	-163.610	  2.96182	  0.12143	  2.39299	  0.86613	  1.44982	 -0.09206	  3.17103	709.53003	 26.30	
 11.899	-171.783	  2.95730	  0.08886	  2.43582	  1.01965	  1.27362	 -0.09557	  3.17068	709.31000	 26.30	
 11.900	180.000	  2.95337	  0.07852	  2.44770	  1.18010	  1.10435	 -0.09665	  3.16824	709.46997	 26.30	
 13.600	180.000	  2.87896	 -0.10232	  2.57269	  1.12059	  1.04663	 -0.12312	  3.17300	709.37000	 26.30	
 13.608	-172.853	  2.87842	 -0.09785	  2.56004	  0.95825	  1.21349	 -0.12193	  3.17032	709.45001	 26.30	
 13.611	-165.583	  2.87858	 -0.07722	  2.52773	  0.79758	  1.38726	 -0.11688	  3.17160	709.33002	 26.30	
 13.601	-158.353	  2.88345	 -0.03204	  2.46374	  0.65626	  1.55743	 -0.11462	  3.16976	709.44000	 26.30	
 13.609	-151.210	  2.88880	  0.02866	  2.37976	  0.52687	  1.72291	 -0.11369	  3.16981	709.44000	 26.30	
 13.611	-143.999	  2.89330	  0.10079	  2.27666	  0.40381	  1.88226	 -0.11360	  3.17079	709.46002	 26.30	
 13.601	-136.825	  2.89462	  0.18895	  2.15440	  0.29613	  2.02821	 -0.10967	  3.16811	709.47998	 26.30	
 13.596	-129.640	  2.90196	  0.29210	  2.01989	  0.20678	  2.15923	 -0.10895	  3.17152	709.51001	 26.30	
 13.611	-122.431	  2.90309	  0.41229	  1.86621	  0.13022	  2.27213	 -0.10834	  3.16914	709.42999	 26.30	
 13.604	-115.211	  2.91095	  0.54694	  1.70521	  0.06861	  2.36868	 -0.10776	  3.17107	709.45001	 26.30	
 13.595	-108.042	  2.91569	  0.69179	  1.53816	  0.02176	  2.43833	 -0.11272	  3.17233	709.31000	 26.30	
 13.607	-100.793	  2.91781	  0.84589	  1.37236	 -0.00476	  2.48036	 -0.11338	  3.16803	709.39001	 26.30	
 13.601	-93.617	  2.91767	  1.00959	  1.19671	 -0.02608	  2.51528	 -0.11120	  3.16953	709.45001	 26.30	
 13.601	-86.383	  2.92239	  1.17985	  1.02987	 -0.02329	  2.51584	 -0.11046	  3.17050	709.37000	 26.40	
 13.607	-79.207	  2.92403	  1.35179	  0.86792	 -0.00842	  2.49006	 -0.10883	  3.16897	709.28003	 26.40	
 13.595	-71.958	  2.92889	  1.52770	  0.71572	  0.02851	  2.44027	 -0.11091	  3.17098	709.51001	 26.40	
 13.604	-64.789	  2.92748	  1.69102	  0.57504	  0.07156	  2.37142	 -0.11227	  3.16830	709.35999	 26.40	
 13.611	-57.569	  2.93114	  1.85255	  0.44571	  0.13373	  2.27996	 -0.10981	  3.17267	709.51001	 26.40	
 13.596	-50.360	  2.93026	  2.00511	  0.32834	  0.21768	  2.16256	 -0.10747	  3.16968	709.37000	 26.40	
 13.601	-43.175	  2.92983	  2.13722	  0.23222	  0.31107	  2.03658	 -0.10490	  3.16950	709.46997	 26.40	
 13.611	-36.001	  2.93132	  2.26108	  0.14370	  0.42245	  1.88500	 -0.10247	  3.17143	709.53003	 26.40	
 13.609	-28.790	  2.93293	  2.35411	  0.08265	  0.54631	  1.73405	 -0.09532	  3.17042	709.37000	 26.40	
 13.601	-21.647	  2.93208	  2.43726	  0.02337	  0.68278	  1.56633	 -0.08976	  3.17149	709.41998	 26.40	
 13.611	-14.417	  2.92885	  2.50147	 -0.02751	  0.83178	  1.38264	 -0.08692	  3.17135	709.46997	 26.40	
 13.608	 -7.147	  2.93010	  2.53374	 -0.04733	  0.98997	  1.21490	 -0.07817	  3.17296	709.46002	 26.40	
 13.600	  0.000	  2.92878	  2.53913	 -0.04842	  1.15177	  1.05001	 -0.07273	  3.17239	709.47998	 26.40	
 13.608	  7.147	  2.92537	  2.52496	 -0.04328	  1.31847	  0.88358	 -0.06974	  3.17119	709.44000	 26.40	
 13.611	 14.417	  2.92393	  2.48387	 -0.01902	  1.49102	  0.71988	 -0.06549	  3.17108	709.41998	 26.40	
 13.601	 21.647	  2.92511	  2.42152	  0.02715	  1.65833	  0.57927	 -0.06000	  3.17419	709.45001	 26.40	
 13.609	 28.790	  2.91930	  2.33283	  0.08376	  1.82184	  0.44080	 -0.06010	  3.17224	709.41998	 26.40	
 13.611	 36.001	  2.91837	  2.22330	  0.15678	  1.97841	  0.31735	 -0.06515	  3.17454	709.46997	 26.40	
 13.601	 43.175	  2.91268	  2.10159	  0.23869	  2.11997	  0.20344	 -0.06665	  3.17524	709.51001	 26.40	
 13.596	 50.360	  2.90654	  1.96053	  0.33540	  2.24513	  0.10974	 -0.07127	  3.17311	709.52002	 26.40	
 13.611	 57.569	  2.90404	  1.80363	  0.45695	  2.35723	  0.03271	 -0.07211	  3.17236	709.47998	 26.40	
 13.604	 64.789	  2.90362	  1.64046	  0.59187	  2.44841	 -0.02581	 -0.07467	  3.17543	709.53003	 26.40	
 13.595	 71.958	  2.89946	  1.46912	  0.73032	  2.51624	 -0.07609	 -0.08068	  3.17556	709.40997	 26.40	
 13.607	 79.207	  2.89779	  1.29508	  0.88810	  2.56527	 -0.10830	 -0.08425	  3.17824	709.46997	 26.40	
 13.601	 86.383	  2.89465	  1.12458	  1.04820	  2.58603	 -0.12144	 -0.08864	  3.17745	709.51001	 26.40	
 13.601	 93.617	  2.89023	  0.95114	  1.21396	  2.58128	 -0.12429	 -0.09339	  3.17666	709.40002	 26.40	
 13.607	100.793	  2.88745	  0.79233	  1.38392	  2.55511	 -0.10831	 -0.09435	  3.17704	709.46002	 26.40	
 13.595	108.042	  2.88439	  0.63912	  1.55379	  2.50225	 -0.07707	 -0.09838	  3.17583	709.42999	 26.40	
 13.604	115.211	  2.88561	  0.50277	  1.72118	  2.43076	 -0.02787	 -0.10311	  3.17653	709.48999	 26.40	
 13.611	122.431	  2.88568	  0.37485	  1.88391	  2.33639	  0.03526	 -0.10839	  3.18094	709.46997	 26.40	
 13.596	129.640	  2.87949	  0.25116	  2.03439	  2.22336	  0.10585	 -0.11734	  3.17990	709.40997	 26.40	
 13.601	136.825	  2.87950	  0.15844	  2.17114	  2.08938	  0.20572	 -0.11347	  3.17694	709.50000	 26.40	
 13.611	143.999	  2.87988	  0.07853	  2.29114	  1.94613	  0.31638	 -0.11450	  3.17802	709.53003	 26.40	
 13.609	151.210	  2.87856	  0.01033	  2.39209	  1.79103	  0.43846	 -0.11741	  3.17794	709.56000	 26.40	
 13.601	158.353	  2.88033	 -0.03845	  2.47262	  1.62625	  0.57911	 -0.11847	  3.17869	709.57001	 26.40	
 13.611	165.583	  2.87949	 -0.07864	  2.53236	  1.45893	  0.72363	 -0.12526	  3.17785	709.48999	 26.40	
 13.608	172.853	  2.87950	 -0.10995	  2.57084	  1.28664	  0.87651	 -0.12810	  3.18021	709.42999	 26.40	
 15.298	173.587	  2.79271	 -0.27894	  2.67763	  1.22098	  0.81366	 -0.14952	  3.17872	709.53998	 26.40	
 15.291	167.167	  2.79372	 -0.25953	  2.65105	  1.39097	  0.65978	 -0.15057	  3.18271	709.45001	 26.40	
 15.307	160.676	  2.78662	 -0.23438	  2.59752	  1.55469	  0.50936	 -0.15089	  3.17774	709.40997	 26.40	
 15.300	154.261	  2.78887	 -0.18800	  2.52630	  1.72316	  0.37202	 -0.15046	  3.18074	709.53998	 26.40	
 15.288	147.854	  2.79154	 -0.12658	  2.43217	  1.88542	  0.24751	 -0.14740	  3.18142	709.46002	 26.40	
 15.293	141.428	  2.78903	 -0.05677	  2.32049	  2.03680	  0.12994	 -0.14739	  3.17866	709.46002	 26.40	
 15.299	134.985	  2.78965	  0.02848	  2.19123	  2.17896	  0.02579	 -0.15041	  3.17837	709.46997	 26.40	
 15.305	128.583	  2.79272	  0.12453	  2.05216	  2.30882	 -0.06312	 -0.14989	  3.18141	709.47998	 26.40	
 15.309	122.142	  2.79353	  0.23606	  1.89802	  2.42528	 -0.14065	 -0.14783	  3.18205	709.44000	 26.40	
 15.304	115.711	  2.79598	  0.36349	  1.73896	  2.52099	 -0.19924	 -0.14307	  3.18209	709.48999	 26.40	
 15.297	109.291	  2.79513	  0.49247	  1.57356	  2.59939	 -0.25701	 -0.13616	  3.18175	709.45001	 26.40	
 15.293	102.897	  2.80341	  0.64594	  1.40551	  2.65377	 -0.27750	 -0.13268	  3.18371	709.46997	 26.40	
 15.293	 96.458	  2.80519	  0.80326	  1.23796	  2.68569	 -0.29524	 -0.12633	  3.18358	709.39001	 26.40	
 15.300	 90.000	  2.80818	  0.96806	  1.06740	  2.70066	 -0.30404	 -0.12632	  3.18292	709.35999	 26.40	
 15.293	 83.542	  2.81101	  1.13905	  0.90196	  2.69423	 -0.29902	 -0.12338	  3.18348	709.35999	 26.40	
 15.293	 77.103	  2.81670	  1.31655	  0.74152	  2.66805	 -0.27908	 -0.11928	  3.18700	709.38000	 26.40	
 15.297	 70.709	  2.81906	  1.48862	  0.59297	  2.61676	 -0.24596	 -0.11470	  3.18503	709.46002	 26.40	
 15.304	 64.289	  2.82376	  1.65661	  0.45839	  2.54410	 -0.19774	 -0.11104	  3.18426	709.47998	 26.40	
 15.309	 57.858	  2.82812	  1.82593	  0.32656	  2.45286	 -0.13867	 -0.10804	  3.18531	709.40002	 26.40	
 15.305	 51.417	  2.83110	  1.98278	  0.21239	  2.34123	 -0.06033	 -0.10629	  3.18369	709.38000	 26.40	
 15.299	 45.015	  2.83587	  2.12781	  0.11206	  2.21559	  0.02884	 -0.10406	  3.18369	709.46002	 26.40	
 15.293	 38.572	  2.84154	  2.26101	  0.02421	  2.07603	  0.13244	 -0.10057	  3.18541	709.34998	 26.40	
 15.288	 32.146	  2.84740	  2.37893	 -0.04800	  1.92680	  0.24979	 -0.09513	  3.18657	709.32001	 26.40	
 15.300	 25.739	  2.84697	  2.47895	 -0.11792	  1.76768	  0.37147	 -0.09470	  3.18605	709.40997	 26.40	
 15.307	 19.324	  2.84925	  2.55433	 -0.16324	  1.59836	  0.51394	 -0.09607	  3.18296	709.28998	 26.40	
 15.291	 12.833	  2.85233	  2.61516	 -0.19820	  1.43069	  0.66445	 -0.09483	  3.18447	709.34003	 26.40	
 15.298	  6.413	  2.85693	  2.65174	 -0.21959	  1.25945	  0.82473	 -0.09653	  3.18509	709.40002	 26.40	
 15.300	  0.000	  2.86123	  2.66650	 -0.22578	  1.09277	  0.99001	 -0.10156	  3.18661	709.29999	 26.40	
 15.298	 -6.413	  2.86090	  2.65762	 -0.21967	  0.93131	  1.15508	 -0.10419	  3.18660	709.37000	 26.40	
 15.291	-12.833	  2.86093	  2.62810	 -0.20025	  0.77165	  1.33163	 -0.10765	  3.18536	709.32001	 26.40	
 15.307	-19.324	  2.86278	  2.57823	 -0.16491	  0.62452	  1.50388	 -0.10986	  3.18525	709.35999	 26.40	
 15.300	-25.739	  2.86380	  2.50516	 -0.11590	  0.48592	  1.67452	 -0.11568	  3.18580	709.38000	 26.40	
 15.288	-32.146	  2.86595	  2.41459	 -0.05512	  0.35660	  1.84108	 -0.12072	  3.18801	709.40997	 26.40	
 15.293	-38.572	  2.86535	  2.30328	  0.01947	  0.23989	  1.99665	 -0.12109	  3.18775	709.41998	 26.40	
 15.299	-45.015	  2.86698	  2.17978	  0.10810	  0.13818	  2.13963	 -0.12057	  3.18919	709.46002	 26.40	
 15.305	-51.417	  2.86178	  2.03631	  0.20585	  0.04614	  2.26804	 -0.12412	  3.18546	709.45001	 26.30	
 15.309	-57.858	  2.86283	  1.88478	  0.31975	 -0.03136	  2.38349	 -0.12223	  3.18755	709.38000	 26.30	
 15.304	-64.289	  2.86076	  1.72188	  0.44741	 -0.09228	  2.47877	 -0.12053	  3.18784	709.40997	 26.30	
 15.297	-70.709	  2.86147	  1.55482	  0.58701	 -0.13819	  2.55387	 -0.12083	  3.18903	709.39001	 26.30	
 15.293	-77.103	  2.86001	  1.38665	  0.73318	 -0.17342	  2.60711	 -0.12041	  3.18989	709.40002	 26.30	
 15.293	-83.542	  2.85811	  1.21093	  0.89029	 -0.19372	  2.63866	 -0.11849	  3.18855	709.45001	 26.30	
 15.300	-90.000	  2.85485	  1.03939	  1.05530	 -0.20061	  2.64899	 -0.11824	  3.18856	709.38000	 26.30	
 15.293	-96.458	  2.85046	  0.87241	  1.22231	 -0.19518	  2.63652	 -0.11693	  3.18843	709.40997	 26.30	
 15.293	-102.897	  2.84932	  0.71066	  1.39547	 -0.17624	  2.60533	 -0.11458	  3.19059	709.40997	 26.30	
 15.297	-109.291	  2.84476	  0.55813	  1.56520	 -0.14641	  2.55055	 -0.11824	  3.19188	709.41998	 26.30	
 15.304	-115.711	  2.84164	  0.41785	  1.73154	 -0.10027	  2.47571	 -0.11716	  3.19207	709.47998	 26.30	
 15.309	-122.142	  2.83740	  0.28586	  1.89630	 -0.03922	  2.38035	 -0.11623	  3.19127	709.40997	 26.30	
 15.305	-128.583	  2.83088	  0.16493	  2.04660	  0.03260	  2.26439	 -0.11708	  3.18882	709.51001	 26.30	
 15.299	-134.985	  2.82809	  0.06408	  2.18945	  0.12118	  2.13542	 -0.11818	  3.18867	709.37000	 26.30	
 15.293	-141.428	  2.82541	 -0.02723	  2.31674	  0.21895	  1.99441	 -0.12011	  3.19125	709.39001	 26.30	
 15.288	-147.854	  2.82241	 -0.10159	  2.43012	  0.33384	  1.83868	 -0.12135	  3.19176	709.31000	 26.30	
 15.300	-154.261	  2.81718	 -0.16875	  2.52692	  0.45629	  1.67398	 -0.12672	  3.19131	709.34003	 26.30	
 15.307	-160.676	  2.81502	 -0.21604	  2.60201	  0.59218	  1.50640	 -0.12906	  3.19141	709.48999	 26.30	
 15.291	-167.167	  2.81207	 -0.24934	  2.65371	  0.74131	  1.33148	 -0.13709	  3.18959	709.33002	 26.30	
 15.298	-173.587	  2.80640	 -0.27534	  2.68930	  0.89813	  1.15073	 -0.13574	  3.18935	709.33002	 26.30	
 15.300	180.000	  2.80450	 -0.28446	  2.70279	  1.05948	  0.98203	 -0.14246	  3.19322	709.34998	 26.30	
 17.000	180.000	  2.70339	 -0.45411	  2.80200	  0.98526	  0.91836	 -0.15644	  3.19133	709.38000	 26.30	
 16.990	-174.179	  2.70859	 -0.44255	  2.79145	  0.82704	  1.08641	 -0.14885	  3.19166	709.37000	 26.30	
 17.009	-168.383	  2.71199	 -0.42361	  2.76263	  0.67194	  1.26170	 -0.14313	  3.19239	709.34998	 26.30	
 17.000	-162.596	  2.71607	 -0.39208	  2.71472	  0.52747	  1.43329	 -0.13830	  3.19331	709.35999	 26.30	
 16.990	-156.759	  2.72043	 -0.35151	  2.64399	  0.38971	  1.60354	 -0.13361	  3.19284	709.31000	 26.20	
 16.995	-150.919	  2.72365	 -0.29676	  2.55836	  0.26147	  1.77260	 -0.13059	  3.19373	709.28003	 26.20	
 16.988	-145.161	  2.72731	 -0.23441	  2.45486	  0.14485	  1.93053	 -0.12751	  3.19303	709.31000	 26.20	
 17.014	-139.343	  2.73209	 -0.15567	  2.33798	  0.04091	  2.08003	 -0.12595	  3.19381	709.37000	 26.20	
 17.007	-133.546	  2.73544	 -0.06252	  2.20413	 -0.05157	  2.22205	 -0.12057	  3.19382	709.39001	 26.20	
 17.001	-127.699	  2.73947	  0.04683	  2.05809	 -0.13083	  2.35174	 -0.12259	  3.19358	709.28998	 26.20	
 17.006	-121.937	  2.74573	  0.15939	  1.90767	 -0.19819	  2.46320	 -0.12180	  3.19556	709.31000	 26.20	
 17.002	-116.134	  2.74780	  0.28760	  1.74377	 -0.25649	  2.55543	 -0.11852	  3.19214	709.37000	 26.20	
 17.001	-110.310	  2.75429	  0.42622	  1.57739	 -0.30316	  2.63511	 -0.11748	  3.19432	709.38000	 26.20	
 16.988	-104.517	  2.75702	  0.57470	  1.40774	 -0.33539	  2.69382	 -0.12097	  3.19301	709.45001	 26.20	
 17.008	-98.662	  2.76220	  0.73176	  1.23616	 -0.36220	  2.73959	 -0.11849	  3.19744	709.35999	 26.20	
 16.996	-92.909	  2.76279	  0.89380	  1.06876	 -0.36690	  2.75335	 -0.12093	  3.19245	709.31000	 26.20	
 16.996	-87.091	  2.76528	  1.06044	  0.90496	 -0.36763	  2.75576	 -0.12463	  3.19345	709.29999	 26.20	
 17.012	-81.253	  2.76906	  1.23379	  0.74265	 -0.35691	  2.73823	 -0.12761	  3.19357	709.28003	 26.20	
 16.988	-75.483	  2.77066	  1.40634	  0.59353	 -0.32780	  2.69554	 -0.12929	  3.19301	709.28998	 26.20	
 17.001	-69.690	  2.77121	  1.57585	  0.44963	 -0.29259	  2.63554	 -0.12857	  3.19080	709.21002	 26.20	
 17.002	-63.866	  2.77204	  1.74178	  0.31624	 -0.24845	  2.56209	 -0.12937	  3.19228	709.31000	 26.20	
 17.006	-58.063	  2.77409	  1.90470	  0.19206	 -0.19045	  2.46839	 -0.13093	  3.19424	709.25000	 26.20	
 17.001	-52.301	  2.77650	  2.05731	  0.08003	 -0.11850	  2.35666	 -0.13170	  3.19478	709.31000	 26.20	
 17.007	-46.454	  2.77428	  2.19800	 -0.02010	 -0.03538	  2.22649	 -0.13155	  3.19235	709.29999	 26.20	
 17.014	-40.657	  2.77533	  2.33062	 -0.10498	  0.06275	  2.09031	 -0.13254	  3.19211	709.44000	 26.20	
 16.988	-34.839	  2.77765	  2.44822	 -0.18314	  0.17157	  1.93911	 -0.13281	  3.19448	709.27002	 26.20	
 16.995	-29.081	  2.77866	  2.54840	 -0.24455	  0.28984	  1.78133	 -0.13180	  3.19484	709.25000	 26.20	
 16.990	-23.241	  2.77617	  2.63161	 -0.30073	  0.42091	  1.60948	 -0.12905	  3.19294	709.34998	 26.10	
 17.000	-17.404	  2.77424	  2.69401	 -0.34086	  0.55979	  1.43926	 -0.12899	  3.19028	709.39001	 26.20	
 17.009	-11.617	  2.77385	  2.74164	 -0.36943	  0.70764	  1.26830	 -0.12682	  3.19190	709.34998	 26.20	
 16.990	 -5.821	  2.77341	  2.76601	 -0.38663	  0.86573	  1.09222	 -0.12461	  3.19177	709.32001	 26.20	
 17.000	  0.000	  2.76756	  2.77120	 -0.39454	  1.02346	  0.92315	 -0.12242	  3.18891	709.32001	 26.20	
 16.990	  5.821	  2.77078	  2.75888	 -0.38719	  1.19362	  0.75812	 -0.12394	  3.19202	709.45001	 26.10	
 17.009	 11.617	  2.76573	  2.72725	 -0.37186	  1.36321	  0.59872	 -0.12323	  3.19229	709.37000	 26.20	
 17.000	 17.404	  2.76348	  2.67332	 -0.33935	  1.52792	  0.45210	 -0.12397	  3.19117	709.27002	 26.10	
 16.990	 23.241	  2.75722	  2.59876	 -0.29816	  1.69617	  0.30891	 -0.12637	  3.18888	709.25000	 26.20	
 16.995	 29.081	  2.75053	  2.50534	 -0.24655	  1.85929	  0.17703	 -0.12952	  3.18539	709.33002	 26.20	
 16.988	 34.839	  2.75287	  2.40252	 -0.17983	  2.01809	  0.05879	 -0.13349	  3.18996	709.19000	 26.20	
 17.014	 40.657	  2.74627	  2.27888	 -0.10207	  2.16471	 -0.04809	 -0.13806	  3.19016	709.22998	 26.20	
 17.007	 46.454	  2.74253	  2.14249	 -0.01345	  2.30174	 -0.14407	 -0.14220	  3.18811	709.37000	 26.20	
 17.001	 52.301	  2.73864	  1.99178	  0.08831	  2.42630	 -0.22808	 -0.14421	  3.19024	709.38000	 26.20	
 17.006	 58.063	  2.73225	  1.83344	  0.19890	  2.53453	 -0.30069	 -0.14603	  3.18783	709.34003	 26.20	
 17.002	 63.866	  2.72992	  1.66872	  0.32504	  2.62417	 -0.35533	 -0.14743	  3.18858	709.28998	 26.20	
 17.001	 69.690	  2.72453	  1.49461	  0.45953	  2.69630	 -0.40368	 -0.14734	  3.18604	709.37000	 26.20	
 16.988	 75.483	  2.71846	  1.32465	  0.60265	  2.75005	 -0.43693	 -0.15119	  3.18577	709.33002	 26.20	
 17.012	 81.253	  2.71526	  1.15030	  0.75583	  2.78773	 -0.46274	 -0.15758	  3.18662	709.29999	 26.20	
 16.996	 87.091	  2.71391	  0.98178	  0.91564	  2.80427	 -0.47217	 -0.16163	  3.18712	709.42999	 26.20	
 16.996	 92.909	  2.70948	  0.81515	  1.07890	  2.79968	 -0.47212	 -0.16352	  3.18525	709.37000	 26.20	
 17.008	 98.662	  2.70641	  0.65631	  1.24758	  2.77915	 -0.45843	 -0.16652	  3.18530	709.34003	 26.20	
 16.988	104.517	  2.70631	  0.50374	  1.41789	  2.73590	 -0.43220	 -0.16562	  3.18622	709.22998	 26.20	
 17.001	110.310	  2.70335	  0.36069	  1.58805	  2.67656	 -0.40004	 -0.16924	  3.18683	709.34003	 26.20	
 17.002	116.134	  2.70131	  0.22620	  1.75417	  2.59809	 -0.35571	 -0.17486	  3.18857	709.17999	 26.20	
 17.006	121.937	  2.69872	  0.10731	  1.91580	  2.50399	 -0.29652	 -0.17911	  3.18693	709.34998	 26.20	
 17.001	127.699	  2.69429	 -0.00153	  2.06537	  2.38939	 -0.22863	 -0.17905	  3.18387	709.40002	 26.20	
 17.007	133.546	  2.69461	 -0.09941	  2.21222	  2.26230	 -0.14255	 -0.17790	  3.18428	709.34003	 26.20	
 17.014	139.343	  2.69386	 -0.18546	  2.34511	  2.12196	 -0.04497	 -0.17870	  3.18621	709.37000	 26.20	
 16.988	145.161	  2.69172	 -0.25502	  2.45796	  1.97046	  0.06311	 -0.17630	  3.18114	709.31000	 26.20	
 16.995	150.919	  2.69257	 -0.31729	  2.56069	  1.81722	  0.18144	 -0.17425	  3.18465	709.28998	 26.20	
 16.990	156.759	  2.69021	 -0.36543	  2.64192	  1.65045	  0.31121	 -0.17213	  3.18061	709.34003	 26.20	
 17.000	162.596	  2.69208	 -0.40608	  2.71175	  1.48214	  0.45136	 -0.16869	  3.18331	709.28003	 26.20	
 17.009	168.383	  2.69480	 -0.43143	  2.75851	  1.31628	  0.59855	 -0.16493	  3.18500	709.38000	 26.20	
 16.990	174.179	  2.69689	 -0.44455	  2.78535	  1.14874	  0.75808	 -0.15919	  3.18287	709.31000	 26.20	
 18.709	174.675	  2.58689	 -0.61416	  2.88040	  1.06936	  0.68470	 -0.16989	  3.18628	709.32001	 26.20	
 18.703	169.441	  2.58412	 -0.60010	  2.85358	  1.23353	  0.53139	 -0.17780	  3.18422	709.38000	 26.20	
 18.691	164.085	  2.58035	 -0.57384	  2.80675	  1.39966	  0.38344	 -0.18408	  3.18053	709.21997	 26.20	
 18.706	158.818	  2.57895	 -0.54217	  2.74644	  1.56512	  0.24518	 -0.18984	  3.17994	709.34003	 26.20	
 18.695	153.537	  2.57929	 -0.49711	  2.66906	  1.73282	  0.11484	 -0.19267	  3.18149	709.37000	 26.20	
 18.704	148.255	  2.57864	 -0.44538	  2.57559	  1.88920	 -0.00483	 -0.19672	  3.18001	709.33002	 26.20	
 18.698	142.952	  2.58191	 -0.38296	  2.47041	  2.04560	 -0.11737	 -0.20159	  3.18198	709.31000	 26.20	
 18.699	137.625	  2.57848	 -0.30940	  2.34560	  2.19179	 -0.21981	 -0.20474	  3.18126	709.37000	 26.20	
 18.705	132.343	  2.57998	 -0.22341	  2.21272	  2.32632	 -0.30620	 -0.20836	  3.18011	709.31000	 26.20	
 18.713	127.067	  2.57960	 -0.12745	  2.06555	  2.44864	 -0.38279	 -0.20677	  3.17772	709.33002	 26.30	
 18.700	121.794	  2.58733	 -0.02048	  1.91761	  2.56047	 -0.44838	 -0.20445	  3.18314	709.40997	 26.30	
 18.698	116.504	  2.58658	  0.09436	  1.75796	  2.65545	 -0.50264	 -0.20339	  3.18084	709.41998	 26.30	
 18.707	111.165	  2.58595	  0.22127	  1.58839	  2.73660	 -0.55283	 -0.20268	  3.18030	709.35999	 26.30	
 18.690	105.863	  2.58785	  0.35891	  1.42096	  2.79796	 -0.58712	 -0.19965	  3.17831	709.47998	 26.30	
 18.696	100.583	  2.59192	  0.50225	  1.25519	  2.84562	 -0.61194	 -0.20008	  3.17949	709.40002	 26.30	
 18.700	 95.309	  2.59287	  0.65737	  1.08868	  2.87478	 -0.62668	 -0.19888	  3.17836	709.44000	 26.30	
 18.700	 90.000	  2.59579	  0.81957	  0.92232	  2.88504	 -0.63091	 -0.19628	  3.17732	709.37000	 26.30	
 18.700	 84.691	  2.59796	  0.98054	  0.76302	  2.87942	 -0.62804	 -0.19423	  3.17722	709.37000	 26.30	
 18.696	 79.417	  2.60169	  1.15173	  0.60797	  2.85702	 -0.61350	 -0.19195	  3.17799	709.47998	 26.30	
 18.690	 74.137	  2.60443	  1.31985	  0.46206	  2.81388	 -0.58900	 -0.18923	  3.17571	709.34998	 26.30	
 18.707	 68.835	  2.61055	  1.49213	  0.32462	  2.75951	 -0.55246	 -0.18708	  3.17772	709.35999	 26.30	
 18.698	 63.496	  2.61221	  1.66172	  0.19307	  2.67981	 -0.50540	 -0.18505	  3.17564	709.41998	 26.30	
 18.700	 58.206	  2.61882	  1.82779	  0.07309	  2.59011	 -0.44914	 -0.18360	  3.17845	709.37000	 26.30	
 18.713	 52.933	  2.62114	  1.98621	 -0.03951	  2.48343	 -0.38350	 -0.18319	  3.17816	709.40002	 26.30	
 18.705	 47.657	  2.62552	  2.13631	 -0.14128	  2.36536	 -0.30930	 -0.17775	  3.17800	709.32001	 26.30	
 18.699	 42.375	  2.62995	  2.27406	 -0.22663	  2.23074	 -0.21746	 -0.17404	  3.17763	709.33002	 26.30	
 18.698	 37.048	  2.63629	  2.40246	 -0.30446	  2.08998	 -0.11897	 -0.17030	  3.17876	709.34003	 26.30	
 18.704	 31.745	  2.64147	  2.51852	 -0.37277	  1.93574	 -0.00462	 -0.16616	  3.17952	709.28003	 26.30	
 18.695	 26.463	  2.64280	  2.61534	 -0.42838	  1.77760	  0.11409	 -0.15816	  3.17811	709.34003	 26.30	
 18.706	 21.182	  2.64447	  2.69693	 -0.47572	  1.61086	  0.24460	 -0.15660	  3.17538	709.40997	 26.30	
 18.691	 15.915	  2.64436	  2.76115	 -0.51402	  1.44537	  0.37913	 -0.15278	  3.17279	709.47998	 26.40	
 18.703	 10.559	  2.65123	  2.81326	 -0.54091	  1.27756	  0.53134	 -0.15051	  3.17716	709.38000	 26.40	
 18.709	  5.325	  2.65248	  2.84554	 -0.56054	  1.10740	  0.68694	 -0.15033	  3.17793	709.37000	 26.40	
 18.700	  0.000	  2.65197	  2.85373	 -0.56102	  0.94233	  0.85112	 -0.14504	  3.17531	709.37000	 26.40	
 18.709	 -5.325	  2.65407	  2.84899	 -0.55804	  0.78470	  1.01257	 -0.14438	  3.17634	709.25000	 26.40	
 18.703	-10.559	  2.65652	  2.82528	 -0.54175	  0.63265	  1.18067	 -0.14110	  3.17700	709.44000	 26.40	
 18.691	-15.915	  2.65875	  2.78516	 -0.51652	  0.48739	  1.35250	 -0.14280	  3.17725	709.53003	 26.40	
 18.706	-21.182	  2.65776	  2.72647	 -0.48000	  0.35048	  1.52024	 -0.14416	  3.17425	709.45001	 26.40	
 18.695	-26.463	  2.65908	  2.65006	 -0.43526	  0.21655	  1.69092	 -0.14380	  3.17542	709.40997	 26.40	
 18.704	-31.745	  2.65889	  2.56138	 -0.38054	  0.09514	  1.85384	 -0.13933	  3.17763	709.53998	 26.40	
 18.698	-37.048	  2.65631	  2.45054	 -0.31322	 -0.01269	  2.00474	 -0.14222	  3.17299	709.47998	 26.40	
 18.699	-42.375	  2.65877	  2.33232	 -0.23824	 -0.11479	  2.15591	 -0.14280	  3.17685	708.78998	 26.40	
 18.705	-47.657	  2.65573	  2.19671	 -0.14936	 -0.20416	  2.29301	 -0.14069	  3.17471	709.50000	 26.40	
 18.713	-52.933	  2.65748	  2.05363	 -0.04799	 -0.28110	  2.41906	 -0.13474	  3.17641	709.42999	 26.40	
 18.700	-58.206	  2.65419	  1.90084	  0.05896	 -0.34729	  2.52433	 -0.13914	  3.17424	709.47998	 26.40	
 18.698	-63.496	  2.65407	  1.74180	  0.17604	 -0.40409	  2.61908	 -0.13575	  3.17639	708.70001	 26.40	
 18.707	-68.835	  2.65233	  1.57496	  0.30762	 -0.45173	  2.69871	 -0.13688	  3.17611	708.78998	 26.40	
 18.690	-74.137	  2.64984	  1.40565	  0.44576	 -0.48812	  2.76028	 -0.13436	  3.17523	709.51001	 26.40	
 18.696	-79.417	  2.64884	  1.23655	  0.59062	 -0.51404	  2.80470	 -0.13419	  3.17544	709.04999	 26.40	
 18.700	-84.691	  2.64214	  1.06556	  0.74233	 -0.53240	  2.82971	 -0.13040	  3.17438	709.37000	 26.50	
 18.700	-90.000	  2.64177	  0.90063	  0.90276	 -0.53736	  2.83888	 -0.12777	  3.17397	709.40997	 26.50	
 18.700	-95.309	  2.63889	  0.73890	  1.06727	 -0.53312	  2.83106	 -0.12699	  3.17518	709.37000	 26.50	
 18.696	-100.583	  2.63568	  0.58210	  1.23460	 -0.51763	  2.80120	 -0.12482	  3.17476	709.41998	 26.50	
 18.690	-105.863	  2.63084	  0.43112	  1.39975	 -0.49206	  2.75445	 -0.12217	  3.17280	709.38000	 26.50	
 18.707	-111.165	  2.62848	  0.28905	  1.56776	 -0.46161	  2.69501	 -0.12310	  3.17528	709.41998	 26.50	
 18.698	-116.504	  2.62512	  0.15389	  1.73566	 -0.41543	  2.61513	 -0.12359	  3.17588	709.46002	 26.50	
 18.700	-121.794	  2.62128	  0.03297	  1.89593	 -0.35865	  2.51735	 -0.12676	  3.17435	709.44000	 26.50	
 18.713	-127.067	  2.61736	 -0.08101	  2.04878	 -0.29643	  2.41001	 -0.12999	  3.17551	709.47998	 26.50	
 18.705	-132.343	  2.61440	 -0.18470	  2.19599	 -0.22242	  2.28832	 -0.12597	  3.17727	709.47998	 26.50	
 18.699	-137.625	  2.60874	 -0.27471	  2.32772	 -0.13528	  2.14950	 -0.12809	  3.17513	709.41998	 26.50	
 18.698	-142.952	  2.60633	 -0.35276	  2.45068	 -0.03511	  2.00036	 -0.13230	  3.17488	708.63000	 26.50	
 18.704	-148.255	  2.60198	 -0.42321	  2.56171	  0.06813	  1.84755	 -0.13515	  3.17608	709.29999	 26.50	
 18.695	-153.537	  2.60039	 -0.47909	  2.65770	  0.18616	  1.68729	 -0.13554	  3.17875	708.73999	 26.50	
 18.706	-158.818	  2.59352	 -0.52880	  2.73625	  0.31233	  1.51727	 -0.14318	  3.17608	708.70001	 26.50	
 18.691	-164.085	  2.59048	 -0.56183	  2.79591	  0.45040	  1.35001	 -0.14939	  3.17480	708.67999	 26.50	
 18.703	-169.441	  2.58536	 -0.59233	  2.84247	  0.59191	  1.17769	 -0.15262	  3.17478	708.65997	 26.50	
 18.709	-174.675	  2.58396	 -0.60995	  2.87172	  0.74491	  1.00871	 -0.15771	  3.17827	708.78998	 26.50	
 18.700	180.000	  2.58145	 -0.61494	  2.87903	  0.90490	  0.84289	 -0.16612	  3.17715	708.66998	 26.50	
 20.400	180.000	  2.45912	 -0.78916	  2.95691	  0.81105	  0.76035	 -0.16984	  3.17613	708.59998	 26.50	
 20.401	-175.153	  2.46282	 -0.78766	  2.95193	  0.66010	  0.91540	 -0.16099	  3.17766	708.64001	 26.50	
 20.407	-170.264	  2.46393	 -0.76998	  2.92520	  0.50436	  1.08995	 -0.14996	  3.17636	708.66998	 26.50	
 20.410	-165.423	  2.46876	 -0.74708	  2.88824	  0.36310	  1.25996	 -0.14582	  3.17960	708.65997	 26.50	
 20.392	-160.496	  2.47248	 -0.71236	  2.82760	  0.22560	  1.42976	 -0.14429	  3.17713	708.58002	 26.50	
 20.401	-155.705	  2.47695	 -0.67459	  2.75793	  0.09687	  1.59862	 -0.13938	  3.18133	708.53998	 26.50	
 20.405	-150.835	  2.47991	 -0.61992	  2.66787	 -0.02195	  1.76243	 -0.13736	  3.17816	709.06000	 26.50	
 20.397	-145.903	  2.48520	 -0.55933	  2.56539	 -0.13154	  1.92276	 -0.13331	  3.17878	709.39001	 26.50	
 20.392	-141.062	  2.49010	 -0.48954	  2.45329	 -0.22960	  2.07465	 -0.12877	  3.17970	709.26001	 26.50	
 20.396	-136.227	  2.49282	 -0.41192	  2.32666	 -0.32264	  2.21780	 -0.12577	  3.17968	709.40997	 26.50	
 20.408	-131.372	  2.49833	 -0.32295	  2.19319	 -0.40188	  2.35147	 -0.12540	  3.18135	708.71002	 26.50	
 20.410	-126.511	  2.50266	 -0.21895	  2.04258	 -0.47161	  2.47247	 -0.12634	  3.17826	709.37000	 26.50	
 20.400	-121.604	  2.50724	 -0.10587	  1.88748	 -0.53724	  2.58822	 -0.12480	  3.18261	709.40002	 26.50	
 20.403	-116.741	  2.50946	  0.01259	  1.72537	 -0.59010	  2.68317	 -0.12039	  3.18036	708.73999	 26.50	
 20.413	-111.900	  2.51511	  0.14059	  1.56439	 -0.63372	  2.76575	 -0.11696	  3.18314	708.56000	 26.50	
 20.398	-107.004	  2.51756	  0.28097	  1.39279	 -0.66831	  2.82807	 -0.11800	  3.18016	709.40002	 26.50	
 20.394	-102.132	  2.52503	  0.42936	  1.22937	 -0.69078	  2.87920	 -0.11825	  3.18435	708.56000	 26.50	
 20.403	-97.332	  2.52645	  0.57573	  1.06279	 -0.71137	  2.91198	 -0.12201	  3.18383	708.62000	 26.50	
 20.392	-92.440	  2.53437	  0.74208	  0.89717	 -0.71635	  2.93166	 -0.12662	  3.18754	708.65997	 26.50	
 20.392	-87.560	  2.53350	  0.90315	  0.73777	 -0.71431	  2.92891	 -0.12833	  3.18454	708.60999	 26.50	
 20.403	-82.668	  2.53606	  1.06960	  0.57804	 -0.71002	  2.91626	 -0.12906	  3.18638	709.39001	 26.50	
 20.394	-77.868	  2.53781	  1.23812	  0.42989	 -0.68965	  2.88213	 -0.13228	  3.18451	708.69000	 26.50	
 20.398	-72.996	  2.53768	  1.40511	  0.28822	 -0.66274	  2.83297	 -0.13416	  3.18354	708.64001	 26.50	
 20.413	-68.100	  2.53853	  1.57322	  0.15209	 -0.62948	  2.77124	 -0.13484	  3.18437	708.59998	 26.50	
 20.403	-63.259	  2.54367	  1.74061	  0.02938	 -0.58104	  2.69149	 -0.13406	  3.18655	708.96002	 26.50	
 20.400	-58.396	  2.54510	  1.89987	 -0.08802	 -0.52921	  2.59621	 -0.13966	  3.18564	708.70001	 26.50	
 20.410	-53.489	  2.54729	  2.05688	 -0.19541	 -0.46269	  2.48691	 -0.13838	  3.18704	708.60999	 26.50	
 20.408	-48.628	  2.54545	  2.20284	 -0.29452	 -0.38871	  2.36125	 -0.13841	  3.18556	708.65997	 26.50	
 20.396	-43.773	  2.54728	  2.33925	 -0.38095	 -0.30571	  2.23107	 -0.14207	  3.18708	708.71002	 26.50	
 20.392	-38.938	  2.54964	  2.46350	 -0.45755	 -0.21190	  2.08617	 -0.14032	  3.18726	708.78003	 26.50	
 20.397	-34.097	  2.55052	  2.57706	 -0.52371	 -0.10826	  1.93574	 -0.14517	  3.18777	708.79999	 26.50	
 20.405	-29.165	  2.55038	  2.67947	 -0.58552	  0.00594	  1.77245	 -0.14572	  3.18882	708.65997	 26.50	
 20.401	-24.295	  2.54822	  2.76264	 -0.63815	  0.12656	  1.60477	 -0.14765	  3.18726	708.67999	 26.50	
 20.392	-19.504	  2.54858	  2.83062	 -0.67493	  0.25723	  1.43961	 -0.14920	  3.18733	709.03998	 26.50	
 20.410	-14.577	  2.54742	  2.88541	 -0.70904	  0.39758	  1.26782	 -0.14694	  3.18753	708.64001	 26.50	
 20.407	 -9.736	  2.54824	  2.92285	 -0.73056	  0.54496	  1.09690	 -0.15122	  3.18856	708.57001	 26.50	
 20.401	 -4.847	  2.54571	  2.94367	 -0.74505	  0.69971	  0.92657	 -0.15226	  3.18889	708.64001	 26.50	
 20.400	  0.000	  2.54520	  2.94896	 -0.74686	  0.85885	  0.76391	 -0.15617	  3.18873	708.69000	 26.50	
 20.401	  4.847	  2.54300	  2.93692	 -0.74082	  1.02055	  0.60745	 -0.16235	  3.18715	708.71997	 26.50	
 20.407	  9.736	  2.54201	  2.91060	 -0.72839	  1.18878	  0.44989	 -0.16489	  3.19060	708.79999	 26.50	
 20.410	 14.577	  2.53920	  2.86780	 -0.70724	  1.35284	  0.30360	 -0.16925	  3.18951	708.77002	 26.50	
 20.392	 19.504	  2.53579	  2.80257	 -0.67136	  1.52429	  0.16127	 -0.17454	  3.18806	708.59998	 26.50	
 20.401	 24.295	  2.53356	  2.72921	 -0.63204	  1.68975	  0.02930	 -0.18210	  3.19045	708.64001	 26.50	
 20.405	 29.165	  2.52982	  2.63584	 -0.57899	  1.85006	 -0.09073	 -0.18565	  3.18917	708.64001	 26.50	
 20.397	 34.097	  2.52833	  2.52725	 -0.51875	  2.00900	 -0.20531	 -0.19771	  3.19049	708.62000	 26.50	
 20.392	 38.938	  2.52515	  2.40669	 -0.44951	  2.15959	 -0.31051	 -0.20063	  3.19035	708.65997	 26.50	
 20.396	 43.773	  2.51822	  2.27570	 -0.37252	  2.29792	 -0.40380	 -0.20454	  3.18816	708.67999	 26.40	
 20.408	 48.628	  2.51676	  2.13574	 -0.28168	  2.42915	 -0.48262	 -0.21027	  3.18868	708.65997	 26.50	
 20.410	 53.489	  2.51102	  1.98213	 -0.17973	  2.55004	 -0.55540	 -0.20946	  3.18978	708.56000	 26.40	
 20.400	 58.396	  2.50683	  1.82391	 -0.07455	  2.65759	 -0.62212	 -0.21417	  3.19028	708.65002	 26.40	
 20.403	 63.259	  2.50217	  1.65785	  0.04256	  2.75137	 -0.67865	 -0.21270	  3.19106	708.58002	 26.40	
 20.413	 68.100	  2.49627	  1.48865	  0.16838	  2.82913	 -0.72636	 -0.21627	  3.18939	708.59003	 26.40	
 20.398	 72.996	  2.49606	  1.31949	  0.30693	  2.88958	 -0.75705	 -0.21885	  3.18962	708.53998	 26.40	
 20.394	 77.868	  2.49361	  1.15133	  0.45030	  2.93470	 -0.78375	 -0.22224	  3.19280	708.46997	 26.40	
 20.403	 82.668	  2.48828	  0.98077	  0.59884	  2.96260	 -0.80399	 -0.22672	  3.19094	708.58002	 26.40	
 20.392	 87.560	  2.49032	  0.81672	  0.75897	  2.97712	 -0.80823	 -0.22589	  3.19410	708.54999	 26.40	
 20.392	 92.440	  2.48285	  0.65321	  0.91809	  2.97227	 -0.81060	 -0.22700	  3.19059	708.76001	 26.40	
 20.403	 97.332	  2.48074	  0.49451	  1.08483	  2.95502	 -0.80298	 -0.22745	  3.19240	708.53003	 26.40	
 20.394	102.132	  2.47467	  0.34493	  1.24694	  2.91869	 -0.78544	 -0.22579	  3.18995	708.58002	 26.40	
 20.398	107.004	  2.47427	  0.20313	  1.41689	  2.86968	 -0.75924	 -0.22559	  3.19253	708.65002	 26.40	
 20.413	111.900	  2.47271	  0.06920	  1.58446	  2.80457	 -0.72530	 -0.22858	  3.19255	708.58002	 26.40	
 20.403	116.741	  2.47009	 -0.05190	  1.74780	  2.72272	 -0.67956	 -0.22792	  3.19204	708.62000	 26.40	
 20.400	121.604	  2.46953	 -0.16603	  1.91001	  2.62662	 -0.62505	 -0.22784	  3.19387	708.72998	 26.40	
 20.410	126.511	  2.46581	 -0.27385	  2.06462	  2.51405	 -0.56120	 -0.22842	  3.18986	708.72998	 26.40	
 20.408	131.372	  2.46669	 -0.36791	  2.21568	  2.39291	 -0.48612	 -0.22831	  3.19459	708.62000	 26.40	
 20.396	136.227	  2.46415	 -0.45314	  2.34989	  2.25988	 -0.40463	 -0.22246	  3.19337	708.67999	 26.40	
 20.392	141.062	  2.46406	 -0.52437	  2.47414	  2.11728	 -0.30927	 -0.21852	  3.19195	708.70001	 26.40	
 20.397	145.903	  2.46420	 -0.59150	  2.58902	  1.96613	 -0.20633	 -0.21729	  3.19400	708.65002	 26.40	
 20.405	150.835	  2.46325	 -0.64786	  2.69142	  1.80477	 -0.09154	 -0.20873	  3.19140	708.63000	 26.40	
 20.401	155.705	  2.46455	 -0.69476	  2.77786	  1.64530	  0.02808	 -0.20641	  3.19577	708.63000	 26.40	
 20.392	160.496	  2.46522	 -0.73071	  2.84772	  1.47914	  0.15868	 -0.19985	  3.19281	708.62000	 26.40	
 20.410	165.423	  2.46602	 -0.76146	  2.90420	  1.30860	  0.30219	 -0.19268	  3.19322	708.66998	 26.30	
 20.407	170.264	  2.46783	 -0.78260	  2.94389	  1.14492	  0.44484	 -0.18127	  3.19532	708.62000	 26.30	
 20.401	175.153	  2.47257	 -0.79296	  2.96879	  0.97782	  0.60396	 -0.17676	  3.19644	708.70001	 26.30	
  0.141	 45.000	  3.20724	  1.37754	  1.40257	  1.45022	  1.32841	  0.06746	  3.19269	708.67999	 26.30	
  4.001	128.691	  3.19186	  1.08532	  1.61724	  1.69552	  1.01312	  0.04629	  3.19418	708.78003	 26.30	
  4.002	 76.995	  3.19698	  1.40427	  1.28888	  1.77893	  0.95401	  0.05892	  3.19597	708.71997	 26.30	
  4.002	 25.892	  3.20255	  1.68340	  1.05892	  1.56485	  1.14415	  0.06709	  3.19663	708.76001	 26.30	
  4.002	-25.892	  3.20532	  1.68866	  1.05838	  1.24507	  1.47437	  0.05446	  3.19632	708.67999	 26.30	
  4.002	-76.995	  3.20181	  1.42067	  1.28974	  1.05409	  1.69031	  0.04003	  3.19472	708.71002	 26.30	
  4.001	-128.691	  3.19920	  1.10015	  1.61860	  1.11497	  1.60875	  0.03185	  3.19683	708.67999	 26.30	
  4.000	180.000	  3.19527	  0.96215	  1.77568	  1.38663	  1.29570	  0.03519	  3.19922	708.71002	 26.30	
  8.000	180.000	  3.11685	  0.51429	  2.15066	  1.30994	  1.22272	 -0.02948	  3.19701	708.76001	 26.30	
  7.991	-152.370	  3.12088	  0.59391	  2.04652	  0.96113	  1.60420	 -0.03034	  3.19347	708.84998	 26.30	
  7.997	-124.550	  3.13116	  0.82683	  1.76821	  0.71230	  1.92000	 -0.03156	  3.19589	708.67999	 26.30	
  8.006	-96.837	  3.14009	  1.16919	  1.39469	  0.59635	  2.07812	 -0.03628	  3.19697	708.70001	 26.30	
  7.988	-69.228	  3.14569	  1.55173	  1.02599	  0.64052	  2.02110	 -0.02235	  3.19538	708.75000	 26.30	
  7.997	-41.563	  3.14623	  1.88670	  0.74062	  0.82597	  1.78289	 -0.00869	  3.19560	708.66998	 26.30	
  8.008	-13.821	  3.14819	  2.08211	  0.59089	  1.14265	  1.42142	  0.01171	  3.19914	708.77002	 26.30	
  8.008	 13.821	  3.14222	  2.07108	  0.59573	  1.51891	  1.03729	  0.02564	  3.19731	708.84998	 26.20	
  7.997	 41.563	  3.13434	  1.86330	  0.75002	  1.87272	  0.72276	  0.02632	  3.19518	708.77002	 26.20	
  7.988	 69.228	  3.12729	  1.51827	  1.03157	  2.10752	  0.53389	  0.01852	  3.19552	708.82001	 26.20	
  8.006	 96.837	  3.12158	  1.13279	  1.39787	  2.15511	  0.49509	  0.00506	  3.19773	708.73999	 26.20	
  7.997	124.550	  3.11965	  0.80200	  1.77253	  1.99898	  0.61244	 -0.00729	  3.19827	708.77002	 26.20	
  7.991	152.370	  3.11778	  0.58803	  2.04809	  1.68888	  0.86888	 -0.01596	  3.19840	708.75000	 26.20	
 12.009	161.059	  2.97018	  0.10869	  2.40629	  1.58313	  0.73202	 -0.09532	  3.19737	708.71997	 26.20	
 12.013	142.081	  2.97460	  0.25139	  2.19814	  1.95928	  0.42025	 -0.08685	  3.19979	708.72998	 26.20	
 12.006	123.113	  2.97530	  0.49434	  1.87382	  2.25683	  0.19771	 -0.08227	  3.19862	708.79999	 26.20	
 12.007	104.200	  2.97999	  0.81452	  1.49416	  2.44110	  0.07322	 -0.07061	  3.19875	708.78998	 26.20	
 11.989	 85.301	  2.98668	  1.20421	  1.09476	  2.48205	  0.04945	 -0.05801	  3.19806	708.75000	 26.20	
 12.013	 66.294	  2.99206	  1.60860	  0.73081	  2.37841	  0.12381	 -0.04519	  3.19534	708.72998	 26.20	
 12.012	 47.388	  3.00286	  1.97841	  0.44045	  2.14763	  0.29284	 -0.03926	  3.20120	708.75000	 26.20	
 11.990	 28.440	  3.01126	  2.26079	  0.24017	  1.80323	  0.56950	 -0.03408	  3.19777	708.89001	 26.20	
 11.991	  9.464	  3.02080	  2.41700	  0.13878	  1.41698	  0.91778	 -0.03730	  3.20100	708.77002	 26.20	
 11.991	 -9.464	  3.02379	  2.42327	  0.13894	  1.02576	  1.31698	 -0.05372	  3.19890	708.83002	 26.20	
 11.990	-28.440	  3.02543	  2.28528	  0.23925	  0.68042	  1.71272	 -0.06729	  3.19868	708.89001	 26.20	
 12.012	-47.388	  3.02256	  2.01688	  0.43259	  0.40317	  2.06080	 -0.08711	  3.19810	708.75000	 26.20	
 12.013	-66.294	  3.02020	  1.65841	  0.72258	  0.22870	  2.30268	 -0.09109	  3.19642	708.77002	 26.20	
 11.989	-85.301	  3.02098	  1.25928	  1.08597	  0.15372	  2.41620	 -0.09712	  3.20127	708.71997	 26.10	
 12.007	-104.200	  3.00911	  0.86856	  1.47946	  0.17334	  2.37493	 -0.09978	  3.19743	708.76001	 26.10	
 12.006	-123.113	  3.00174	  0.53178	  1.86487	  0.29495	  2.19572	 -0.09452	  3.20083	708.71997	 26.10	
 12.013	-142.081	  2.99180	  0.27594	  2.19060	  0.51492	  1.89130	 -0.09648	  3.19962	708.75000	 26.10	
 12.009	-161.059	  2.98361	  0.11956	  2.40504	  0.81826	  1.51342	 -0.09634	  3.20169	708.71002	 26.10	
 16.000	180.000	  2.77304	 -0.35712	  2.75118	  1.03030	  0.96044	 -0.15000	  3.20017	708.79999	 26.10	
 15.990	-165.604	  2.77843	 -0.31800	  2.69344	  0.66324	  1.36404	 -0.13782	  3.20059	708.66998	 26.10	
 16.002	-151.165	  2.78493	 -0.21102	  2.52369	  0.34115	  1.76182	 -0.12911	  3.19860	708.75000	 26.10	
 16.002	-136.836	  2.79792	 -0.02874	  2.25812	  0.08712	  2.12109	 -0.12333	  3.20145	708.90002	 26.10	
 15.995	-122.439	  2.80579	  0.22568	  1.91517	 -0.10350	  2.41317	 -0.11839	  3.19922	708.67999	 26.10	
 15.993	-107.966	  2.81669	  0.54654	  1.52446	 -0.22425	  2.61305	 -0.11989	  3.20249	708.81000	 26.10	
 16.005	-93.629	  2.82114	  0.91542	  1.12565	 -0.27321	  2.69773	 -0.12205	  3.19834	708.71002	 26.10	
 15.992	-79.234	  2.83132	  1.31790	  0.74644	 -0.25041	  2.66899	 -0.12990	  3.20000	708.69000	 26.10	
 16.009	-64.774	  2.83413	  1.72107	  0.40204	 -0.16548	  2.52526	 -0.12340	  3.20064	709.27002	 26.10	
 15.997	-50.364	  2.83671	  2.08715	  0.12742	 -0.00320	  2.27639	 -0.12729	  3.19874	709.48999	 26.10	
 15.997	-36.045	  2.83577	  2.38775	 -0.07972	  0.22536	  1.95637	 -0.12808	  3.19951	708.84003	 26.10	
 16.000	-21.597	  2.83688	  2.60184	 -0.21956	  0.52373	  1.57231	 -0.12181	  3.19996	708.70001	 26.10	
 16.003	 -7.169	  2.83668	  2.70899	 -0.28782	  0.87799	  1.16560	 -0.11462	  3.20234	708.70001	 26.10	
 16.003	  7.169	  2.82998	  2.69915	 -0.28767	  1.26316	  0.77373	 -0.10792	  3.19939	708.71997	 26.10	
 16.000	 21.597	  2.82395	  2.57678	 -0.21614	  1.66181	  0.41666	 -0.10787	  3.19935	708.82001	 26.10	
 15.997	 36.045	  2.81836	  2.34623	 -0.07449	  2.04171	  0.11540	 -0.11418	  3.20294	708.89001	 26.00	
 15.997	 50.364	  2.80866	  2.02831	  0.13839	  2.35952	 -0.11309	 -0.12134	  3.20137	708.71002	 26.00	
 16.009	 64.774	  2.79728	  1.64746	  0.41845	  2.59884	 -0.27387	 -0.12491	  3.20142	709.04999	 26.00	
 15.992	 79.234	  2.78658	  1.24135	  0.75972	  2.72927	 -0.35833	 -0.13413	  3.19778	708.78998	 26.00	
 16.005	 93.629	  2.78097	  0.84333	  1.14245	  2.75555	 -0.37567	 -0.14292	  3.20115	708.78003	 26.00	
 15.993	107.966	  2.77867	  0.48158	  1.54128	  2.66459	 -0.32484	 -0.14827	  3.20457	708.70001	 26.00	
 15.995	122.439	  2.76654	  0.16939	  1.92688	  2.46205	 -0.20707	 -0.15991	  3.20016	708.73999	 26.00	
 16.002	136.836	  2.76789	 -0.06604	  2.27066	  2.17170	 -0.00772	 -0.16121	  3.20350	708.71002	 26.00	
 16.002	151.165	  2.76293	 -0.23289	  2.53322	  1.81398	  0.25838	 -0.16147	  3.20051	708.73999	 26.00	
 15.990	165.604	  2.76645	 -0.32984	  2.69671	  1.42350	  0.58434	 -0.15928	  3.20076	708.63000	 26.00	
 20.003	168.362	  2.50243	 -0.73986	  2.92263	  1.22784	  0.41292	 -0.18492	  3.20321	708.72998	 26.00	
 20.008	156.764	  2.49834	 -0.66640	  2.78848	  1.61770	  0.08858	 -0.20336	  3.20115	708.75000	 26.00	
 20.000	145.147	  2.50088	 -0.54247	  2.57028	  1.99367	 -0.18554	 -0.21764	  3.20210	708.64001	 26.00	
 19.995	133.545	  2.50235	 -0.37176	  2.27979	  2.33362	 -0.41436	 -0.22055	  3.20308	708.84998	 26.00	
 20.009	121.926	  2.50366	 -0.14326	  1.92900	  2.61512	 -0.58475	 -0.22231	  3.20057	708.90997	 26.00	
 20.005	110.327	  2.51160	  0.14119	  1.54844	  2.82185	 -0.69854	 -0.22149	  3.20460	708.71002	 25.90	
 19.989	 98.733	  2.51914	  0.47682	  1.15588	  2.94038	 -0.75946	 -0.21897	  3.20615	708.82001	 25.90	
 19.999	 87.075	  2.52582	  0.85168	  0.76972	  2.96688	 -0.77063	 -0.21949	  3.20285	708.82001	 26.00	
 19.992	 75.457	  2.53473	  1.24812	  0.41053	  2.90972	 -0.73498	 -0.21117	  3.20482	708.79999	 25.90	
 20.009	 63.844	  2.54049	  1.64684	  0.09358	  2.75848	 -0.64698	 -0.20891	  3.20329	708.78003	 25.90	
 19.989	 52.269	  2.55334	  2.02619	 -0.16975	  2.52484	 -0.50536	 -0.20617	  3.20436	708.89001	 25.90	
 19.999	 40.602	  2.55959	  2.36138	 -0.38167	  2.21416	 -0.30720	 -0.19866	  3.20107	708.75000	 25.90	
 20.004	 29.051	  2.56979	  2.63183	 -0.53746	  1.85917	 -0.05564	 -0.18218	  3.20142	708.91998	 25.90	
 20.005	 17.433	  2.57836	  2.82633	 -0.64490	  1.47334	  0.24768	 -0.17001	  3.20488	708.82001	 25.90	
 20.006	  5.780	  2.58260	  2.92352	 -0.69510	  1.07683	  0.59980	 -0.15931	  3.20034	708.83002	 25.90	
 20.006	 -5.780	  2.58900	  2.93284	 -0.69678	  0.69881	  0.98268	 -0.15369	  3.20291	708.89001	 25.90	
 20.005	-17.433	  2.58963	  2.84922	 -0.64686	  0.35043	  1.38203	 -0.14951	  3.20213	708.89001	 25.90	
 20.004	-29.051	  2.59283	  2.67694	 -0.54287	  0.04671	  1.78109	 -0.14499	  3.20311	708.79999	 25.90	
 19.999	-40.602	  2.59287	  2.42536	 -0.39090	 -0.20589	  2.14469	 -0.14390	  3.20480	708.76001	 25.90	
 19.989	-52.269	  2.59407	  2.10156	 -0.18022	 -0.40306	  2.45984	 -0.14259	  3.20620	708.79999	 25.90	
 20.009	-63.844	  2.58717	  1.73173	  0.08141	 -0.54830	  2.70177	 -0.13677	  3.20320	708.85999	 25.90	
 19.992	-75.457	  2.58266	  1.33822	  0.39323	 -0.63849	  2.85997	 -0.13176	  3.20250	708.87000	 25.90	
 19.999	-87.075	  2.57945	  0.94025	  0.75195	 -0.67694	  2.92857	 -0.12517	  3.20470	708.84998	 25.90	
 19.989	-98.733	  2.57242	  0.55916	  1.13797	 -0.66794	  2.90483	 -0.12332	  3.20614	708.90997	 25.80	
 20.005	-110.327	  2.56136	  0.21239	  1.53092	 -0.60945	  2.78904	 -0.11931	  3.20500	708.90002	 25.80	
 20.009	-121.926	  2.55183	 -0.08352	  1.91546	 -0.49577	  2.58532	 -0.12677	  3.20374	708.84998	 25.80	
 19.995	-133.545	  2.54372	 -0.33172	  2.26905	 -0.33313	  2.30469	 -0.12554	  3.20740	708.90002	 25.80	
 20.000	-145.147	  2.53405	 -0.51690	  2.56016	 -0.11288	  1.95992	 -0.12947	  3.20463	708.96002	 25.80	
 20.008	-156.764	  2.52295	 -0.65151	  2.78319	  0.15767	  1.57709	 -0.14168	  3.20559	708.90002	 25.80	
 20.003	-168.362	  2.51402	 -0.73089	  2.92098	  0.47789	  1.17733	 -0.15364	  3.20405	708.78998	 25.80	
 20.000	180.000	  2.50740	 -0.75996	  2.96669	  0.83987	  0.78196	 -0.17058	  3.20402	708.84003	 25.80	
