FileType=PCF
NHL=14
Date=03/14/19	09:31:43
Facility=APL
Serial=16071-9
Customer=NASA
NP=6
Mach=0.080000
Calibration=1:1
CalPts=490
TstPts=95
PortNumbering=AP Standard
Units=Torr C m/s kg/m^3 deg mm 
Theta[deg]	Phi[deg]	P1[Torr]	P2[Torr]	P3[Torr]	P4[Torr]	P5[Torr]	P6[Torr]	Pt[Torr]	Ps[Abs,Torr]	Ts[C]	
  0.000	  0.000	  3.18225	  1.36845	  1.38681	  1.36722	  1.36970	  0.05990	  3.18248	709.12000	 16.80	
  1.691	128.401	  3.18176	  1.27529	  1.46281	  1.46931	  1.25117	  0.05971	  3.18121	709.09998	 16.80	
  1.692	 77.194	  3.18209	  1.39685	  1.34809	  1.50005	  1.22827	  0.06281	  3.18230	709.09998	 16.70	
  1.699	 26.182	  3.18531	  1.49930	  1.25121	  1.42369	  1.30815	  0.06468	  3.18359	709.03003	 16.70	
  1.699	-26.182	  3.18201	  1.48136	  1.25429	  1.28827	  1.43304	  0.05853	  3.18156	709.09003	 16.70	
  1.692	-77.194	  3.18553	  1.38765	  1.34934	  1.21359	  1.50986	  0.05556	  3.18502	709.10999	 16.70	
  1.691	-128.401	  3.18574	  1.26169	  1.47628	  1.24639	  1.46951	  0.05181	  3.18514	708.98999	 16.70	
  1.700	180.000	  3.18388	  1.21237	  1.52844	  1.35175	  1.35945	  0.05341	  3.18351	709.09998	 16.70	
  3.400	180.000	  3.17934	  1.03608	  1.69387	  1.33433	  1.33768	  0.04071	  3.18340	709.07001	 16.70	
  3.388	-152.325	  3.17554	  1.06259	  1.65490	  1.18645	  1.48601	  0.03721	  3.18006	708.98999	 16.70	
  3.397	-124.529	  3.17921	  1.15363	  1.55044	  1.08552	  1.60803	  0.03394	  3.18400	708.94000	 16.60	
  3.399	-96.763	  3.17907	  1.29010	  1.40145	  1.03312	  1.67307	  0.03498	  3.18336	709.12000	 16.60	
  3.394	-69.283	  3.18037	  1.43919	  1.25771	  1.04944	  1.65807	  0.04074	  3.18486	709.12000	 16.60	
  3.400	-41.398	  3.18242	  1.57454	  1.13595	  1.12533	  1.57298	  0.04934	  3.18562	709.08002	 16.60	
  3.401	-14.021	  3.18229	  1.65238	  1.07264	  1.25069	  1.42954	  0.05378	  3.18722	709.08002	 16.60	
  3.401	 14.021	  3.17862	  1.65797	  1.06860	  1.39933	  1.27765	  0.05884	  3.18405	709.08002	 16.60	
  3.400	 41.398	  3.17772	  1.57959	  1.13111	  1.54167	  1.14940	  0.06110	  3.18182	709.16998	 16.60	
  3.394	 69.283	  3.18047	  1.45240	  1.24683	  1.64010	  1.06457	  0.06023	  3.18536	709.06000	 16.60	
  3.399	 96.763	  3.18085	  1.30477	  1.39716	  1.66129	  1.04731	  0.05643	  3.18577	709.12000	 16.60	
  3.397	124.529	  3.17893	  1.17168	  1.53905	  1.60991	  1.09032	  0.05068	  3.18331	709.19000	 16.60	
  3.388	152.325	  3.18007	  1.07364	  1.65138	  1.48329	  1.20036	  0.04579	  3.18380	709.22998	 16.60	
  5.099	161.165	  3.16446	  0.87559	  1.82672	  1.47444	  1.15595	  0.02480	  3.18366	709.27002	 16.60	
  5.109	142.013	  3.16362	  0.94671	  1.74092	  1.62775	  1.02012	  0.03063	  3.18305	709.16998	 16.60	
  5.095	123.033	  3.16386	  1.05988	  1.60773	  1.74518	  0.92240	  0.03626	  3.18203	709.20001	 16.60	
  5.105	104.191	  3.16479	  1.20225	  1.45335	  1.81937	  0.86556	  0.04125	  3.18427	709.17999	 16.60	
  5.093	 85.207	  3.16254	  1.36020	  1.29001	  1.82964	  0.85777	  0.04333	  3.18163	709.25000	 16.60	
  5.104	 66.290	  3.16406	  1.52130	  1.13996	  1.78418	  0.89876	  0.05018	  3.18429	709.17999	 16.60	
  5.094	 47.331	  3.16480	  1.66438	  1.01585	  1.68290	  0.98273	  0.05219	  3.18449	709.21002	 16.60	
  5.089	 28.397	  3.16246	  1.76805	  0.92768	  1.53875	  1.10265	  0.05151	  3.18200	709.17999	 16.60	
  5.096	  9.576	  3.16443	  1.82318	  0.88268	  1.38209	  1.24982	  0.04772	  3.18323	709.21997	 16.60	
  5.096	 -9.576	  3.16398	  1.81876	  0.88449	  1.22102	  1.41120	  0.04200	  3.18352	709.13000	 16.60	
  5.089	-28.397	  3.16733	  1.75790	  0.93423	  1.07609	  1.57184	  0.03444	  3.18659	709.22998	 16.60	
  5.094	-47.331	  3.16544	  1.64484	  1.02388	  0.95923	  1.70562	  0.02965	  3.18338	709.23999	 16.60	
  5.104	-66.290	  3.16834	  1.49928	  1.15308	  0.88313	  1.79993	  0.02191	  3.18557	709.28998	 16.60	
  5.093	-85.207	  3.16880	  1.33960	  1.30362	  0.85174	  1.83643	  0.01589	  3.18641	709.20001	 16.60	
  5.105	-104.191	  3.16769	  1.17786	  1.46680	  0.86047	  1.81847	  0.00990	  3.18633	709.20001	 16.60	
  5.095	-123.033	  3.16704	  1.04012	  1.62224	  0.91872	  1.74459	  0.01092	  3.18427	709.29999	 16.60	
  5.109	-142.013	  3.16595	  0.92960	  1.75118	  1.01509	  1.62444	  0.01400	  3.18445	709.21997	 16.60	
  5.099	-161.165	  3.16590	  0.86542	  1.83231	  1.15265	  1.47006	  0.01513	  3.18477	709.14001	 16.60	
  5.100	180.000	  3.16210	  0.84629	  1.85600	  1.31193	  1.30536	  0.01876	  3.18208	709.17999	 16.60	
  6.800	180.000	  3.13999	  0.65426	  2.01821	  1.28420	  1.27080	 -0.00551	  3.18717	709.17999	 16.60	
  6.796	-166.229	  3.13835	  0.66496	  1.99879	  1.12426	  1.43100	 -0.00994	  3.18525	709.16998	 16.60	
  6.808	-152.311	  3.13829	  0.71059	  1.93784	  0.97538	  1.59283	 -0.01050	  3.18497	709.13000	 16.60	
  6.795	-138.383	  3.13795	  0.78833	  1.83751	  0.85159	  1.73523	 -0.01368	  3.18416	709.16998	 16.60	
  6.792	-124.591	  3.13766	  0.89518	  1.70830	  0.75556	  1.85568	 -0.01533	  3.18447	709.04999	 16.60	
  6.787	-110.754	  3.13718	  1.02842	  1.55612	  0.68923	  1.94295	 -0.01573	  3.18354	709.13000	 16.60	
  6.800	-96.985	  3.13730	  1.17764	  1.39701	  0.65362	  1.99296	 -0.01476	  3.18342	709.22998	 16.60	
  6.800	-83.015	  3.13827	  1.34091	  1.23466	  0.65543	  1.99669	 -0.01251	  3.18451	709.26001	 16.60	
  6.787	-69.246	  3.14184	  1.50406	  1.08542	  0.69295	  1.95801	 -0.00565	  3.18601	709.32001	 16.60	
  6.792	-55.409	  3.13949	  1.65719	  0.94967	  0.75309	  1.88060	 -0.00005	  3.18462	709.20001	 16.60	
  6.795	-41.617	  3.14177	  1.79286	  0.84076	  0.84885	  1.76782	  0.00370	  3.18691	709.26001	 16.60	
  6.808	-27.689	  3.13981	  1.89761	  0.75720	  0.96790	  1.62720	  0.01227	  3.18545	709.16998	 16.60	
  6.796	-13.771	  3.14115	  1.96594	  0.70943	  1.11514	  1.46671	  0.02157	  3.18642	709.09998	 16.60	
  6.800	  0.000	  3.14070	  1.98876	  0.69153	  1.27186	  1.30366	  0.02402	  3.18567	709.13000	 16.60	
  6.796	 13.771	  3.14298	  1.97493	  0.70729	  1.43098	  1.15168	  0.02991	  3.18717	709.21002	 16.60	
  6.808	 27.689	  3.13830	  1.91217	  0.75030	  1.58861	  1.00213	  0.03141	  3.18387	709.34003	 16.60	
  6.795	 41.617	  3.14050	  1.81389	  0.83210	  1.73655	  0.87761	  0.03017	  3.18575	709.21002	 16.60	
  6.792	 55.409	  3.13864	  1.68545	  0.93812	  1.85216	  0.78313	  0.02817	  3.18246	709.27002	 16.60	
  6.787	 69.246	  3.14002	  1.53600	  1.07140	  1.93741	  0.71750	  0.02775	  3.18585	709.22998	 16.60	
  6.800	 83.015	  3.13725	  1.37424	  1.21790	  1.98326	  0.67596	  0.02393	  3.18224	709.22998	 16.60	
  6.800	 96.985	  3.14133	  1.21305	  1.38109	  1.99043	  0.67002	  0.01836	  3.18635	709.35999	 16.60	
  6.787	110.754	  3.13974	  1.06011	  1.53956	  1.94578	  0.69956	  0.01549	  3.18524	709.28998	 16.70	
  6.792	124.591	  3.13938	  0.92343	  1.69423	  1.86726	  0.75709	  0.01165	  3.18606	709.13000	 16.60	
  6.795	138.383	  3.13677	  0.81182	  1.82299	  1.75096	  0.84831	  0.00688	  3.18517	709.17999	 16.60	
  6.808	152.311	  3.13608	  0.72604	  1.92733	  1.60693	  0.96938	  0.00285	  3.18273	709.17999	 16.70	
  6.796	166.229	  3.13970	  0.67360	  1.99596	  1.44592	  1.11641	 -0.00152	  3.18702	709.16998	 16.70	
  8.491	168.704	  3.09698	  0.47457	  2.15035	  1.41267	  1.06448	 -0.03026	  3.18585	709.19000	 16.70	
  8.502	157.493	  3.09524	  0.51855	  2.09365	  1.58016	  0.91286	 -0.02486	  3.18259	709.19000	 16.70	
  8.494	146.194	  3.10080	  0.59424	  2.00468	  1.74205	  0.78199	 -0.02178	  3.18849	709.20001	 16.70	
  8.495	135.039	  3.09501	  0.68570	  1.88385	  1.87608	  0.66685	 -0.01839	  3.18388	709.22998	 16.70	
  8.487	123.723	  3.09811	  0.80466	  1.74611	  1.99212	  0.58177	 -0.01261	  3.18418	709.19000	 16.70	
  8.492	112.575	  3.09836	  0.93901	  1.59072	  2.07897	  0.51874	 -0.01142	  3.18474	709.28003	 16.70	
  8.510	101.220	  3.09666	  1.09185	  1.42133	  2.13293	  0.47871	 -0.01297	  3.18335	709.26001	 16.70	
  8.500	 90.000	  3.09975	  1.25831	  1.25641	  2.14900	  0.47394	 -0.00678	  3.18611	709.15002	 16.70	
  8.510	 78.780	  3.09943	  1.42422	  1.09541	  2.12987	  0.48896	 -0.00421	  3.18656	709.21997	 16.70	
  8.492	 67.425	  3.09982	  1.59159	  0.94450	  2.06826	  0.53897	 -0.00166	  3.18585	709.39001	 16.70	
  8.487	 56.277	  3.10135	  1.74523	  0.81407	  1.97861	  0.61070	  0.00036	  3.18664	709.28003	 16.70	
  8.495	 44.961	  3.10067	  1.88212	  0.69931	  1.86166	  0.69913	  0.00174	  3.18598	709.25000	 16.70	
  8.494	 33.806	  3.10150	  1.99446	  0.60933	  1.72281	  0.81393	  0.00210	  3.18712	709.25000	 16.70	
  8.502	 22.507	  3.10053	  2.08122	  0.54591	  1.56194	  0.95432	  0.00462	  3.18396	709.28003	 16.70	
  8.491	 11.296	  3.10165	  2.13131	  0.50870	  1.39517	  1.10789	  0.00139	  3.18510	709.29999	 16.70	
  8.500	  0.000	  3.10138	  2.14549	  0.49675	  1.23120	  1.26859	 -0.00111	  3.18647	709.26001	 16.70	
  8.491	-11.296	  3.09779	  2.11900	  0.51182	  1.06506	  1.43734	 -0.00270	  3.18261	709.21002	 16.70	
  8.502	-22.507	  3.10163	  2.06437	  0.55030	  0.91260	  1.60461	 -0.01272	  3.18623	709.16998	 16.70	
  8.494	-33.806	  3.10027	  1.97011	  0.62028	  0.77927	  1.75878	 -0.02087	  3.18457	709.23999	 16.70	
  8.495	-44.961	  3.10117	  1.85175	  0.71191	  0.66804	  1.89497	 -0.02495	  3.18501	709.22998	 16.70	
  8.487	-56.277	  3.09851	  1.70700	  0.82548	  0.57322	  2.00607	 -0.02811	  3.18524	709.15997	 16.70	
  8.492	-67.425	  3.09934	  1.55290	  0.96206	  0.51015	  2.09045	 -0.03207	  3.18436	709.28003	 16.80	
  8.510	-78.780	  3.09810	  1.38136	  1.11386	  0.46436	  2.14331	 -0.04025	  3.18548	709.23999	 16.70	
  8.500	-90.000	  3.09681	  1.21425	  1.27741	  0.45327	  2.15457	 -0.04262	  3.18306	709.17999	 16.80	
  8.510	-101.220	  3.09900	  1.05375	  1.44343	  0.46698	  2.13197	 -0.04366	  3.18554	709.21002	 16.80	
  8.492	-112.575	  3.10071	  0.90175	  1.61265	  0.51217	  2.07000	 -0.04245	  3.18503	709.19000	 16.80	
  8.487	-123.723	  3.10088	  0.77083	  1.76529	  0.58164	  1.97842	 -0.04332	  3.18574	709.28003	 16.80	
  8.495	-135.039	  3.09935	  0.65605	  1.90388	  0.67430	  1.85554	 -0.04177	  3.18388	709.32001	 16.80	
  8.494	-146.194	  3.10177	  0.56993	  2.01723	  0.79094	  1.71545	 -0.03776	  3.18691	709.31000	 16.80	
  8.502	-157.493	  3.09897	  0.50576	  2.10216	  0.92610	  1.55933	 -0.03808	  3.18413	709.15002	 16.80	
  8.491	-168.704	  3.10089	  0.46799	  2.15492	  1.08116	  1.39220	 -0.03785	  3.18804	709.25000	 16.80	
  8.500	180.000	  3.09758	  0.45763	  2.17072	  1.24560	  1.22269	 -0.03257	  3.18662	709.27002	 16.80	
 10.200	180.000	  3.04676	  0.26946	  2.31227	  1.20334	  1.17401	 -0.06051	  3.18621	709.34998	 16.80	
 10.191	-170.497	  3.04896	  0.27763	  2.29951	  1.03649	  1.34390	 -0.06366	  3.18649	709.28003	 16.80	
 10.210	-161.034	  3.04628	  0.30431	  2.25550	  0.87404	  1.51485	 -0.06553	  3.18371	709.25000	 16.80	
 10.194	-151.526	  3.04828	  0.35780	  2.18040	  0.73382	  1.67417	 -0.06402	  3.18418	709.29999	 16.80	
 10.190	-142.105	  3.04853	  0.43053	  2.08089	  0.60482	  1.83030	 -0.06631	  3.18503	709.32001	 16.80	
 10.215	-132.646	  3.04702	  0.52395	  1.95742	  0.49101	  1.97256	 -0.06798	  3.18398	709.31000	 16.80	
 10.203	-123.092	  3.04889	  0.64093	  1.81271	  0.40171	  2.09599	 -0.06737	  3.18705	709.33002	 16.80	
 10.192	-113.678	  3.04946	  0.77526	  1.65632	  0.33910	  2.18564	 -0.06836	  3.18580	709.32001	 16.80	
 10.208	-104.249	  3.04867	  0.92102	  1.48936	  0.28975	  2.25455	 -0.06756	  3.18679	709.40997	 16.80	
 10.210	-94.801	  3.04773	  1.08216	  1.31728	  0.26667	  2.29146	 -0.06663	  3.18610	709.37000	 16.80	
 10.210	-85.199	  3.04935	  1.24981	  1.14923	  0.26362	  2.29876	 -0.06636	  3.18803	709.33002	 16.80	
 10.208	-75.751	  3.04565	  1.42044	  0.98579	  0.28665	  2.26883	 -0.06411	  3.18395	709.39001	 16.80	
 10.192	-66.322	  3.04806	  1.58901	  0.83807	  0.32987	  2.21247	 -0.06139	  3.18580	709.42999	 16.80	
 10.203	-56.908	  3.04865	  1.75078	  0.70000	  0.39052	  2.13198	 -0.06118	  3.18814	709.33002	 16.80	
 10.215	-47.354	  3.04849	  1.89944	  0.58437	  0.48250	  2.01663	 -0.05580	  3.18558	709.40002	 16.90	
 10.190	-37.895	  3.04702	  2.02885	  0.48280	  0.59088	  1.87924	 -0.05326	  3.18382	709.32001	 16.90	
 10.194	-28.474	  3.04804	  2.13872	  0.40650	  0.71626	  1.73106	 -0.04672	  3.18447	709.34998	 16.90	
 10.210	-18.966	  3.04782	  2.22021	  0.34792	  0.85632	  1.56942	 -0.03846	  3.18476	709.35999	 16.90	
 10.191	 -9.503	  3.04728	  2.26862	  0.31700	  1.01449	  1.39732	 -0.03322	  3.18453	709.25000	 16.90	
 10.200	  0.000	  3.04964	  2.29107	  0.30355	  1.17930	  1.22791	 -0.02915	  3.18557	709.22998	 16.90	
 10.191	  9.503	  3.04842	  2.27813	  0.31505	  1.34649	  1.06356	 -0.02610	  3.18449	709.16998	 16.90	
 10.210	 18.966	  3.04761	  2.23661	  0.34430	  1.51842	  0.90428	 -0.02395	  3.18470	709.16998	 16.90	
 10.194	 28.474	  3.04895	  2.16357	  0.39762	  1.68575	  0.75903	 -0.02233	  3.18584	709.32001	 16.90	
 10.190	 37.895	  3.04859	  2.06224	  0.47251	  1.83769	  0.63273	 -0.02628	  3.18457	709.34003	 16.90	
 10.215	 47.354	  3.04905	  1.93977	  0.56890	  1.97947	  0.52193	 -0.03230	  3.18702	709.31000	 16.90	
 10.203	 56.908	  3.04903	  1.79510	  0.68504	  2.10043	  0.43024	 -0.03570	  3.18568	709.28998	 16.90	
 10.192	 66.322	  3.04778	  1.63964	  0.81642	  2.18951	  0.36459	 -0.03606	  3.18638	709.26001	 16.90	
 10.208	 75.751	  3.04651	  1.47160	  0.96536	  2.25416	  0.31444	 -0.03430	  3.18514	709.32001	 16.90	
 10.210	 85.199	  3.04542	  1.30203	  1.12209	  2.28642	  0.28851	 -0.03603	  3.18174	709.33002	 16.90	
 10.210	 94.801	  3.04702	  1.13264	  1.29249	  2.29112	  0.28506	 -0.04052	  3.18434	709.28003	 16.90	
 10.208	104.249	  3.04673	  0.96867	  1.46175	  2.26376	  0.30016	 -0.04176	  3.18621	709.22998	 16.90	
 10.192	113.678	  3.04388	  0.81586	  1.62676	  2.20198	  0.33647	 -0.04292	  3.18290	709.17999	 16.90	
 10.203	123.092	  3.04598	  0.67968	  1.78550	  2.11464	  0.39770	 -0.04464	  3.18484	709.34003	 16.90	
 10.215	132.646	  3.04275	  0.55863	  1.93332	  1.99839	  0.48430	 -0.04768	  3.18297	709.21002	 16.90	
 10.190	142.105	  3.04167	  0.46055	  2.05991	  1.85789	  0.59268	 -0.05059	  3.18124	709.21002	 16.90	
 10.194	151.526	  3.04343	  0.37944	  2.16527	  1.70985	  0.71345	 -0.05415	  3.18535	709.14001	 16.90	
 10.210	161.034	  3.04450	  0.31510	  2.24822	  1.54368	  0.85361	 -0.05722	  3.18736	709.13000	 16.90	
 10.191	170.497	  3.04586	  0.28374	  2.29472	  1.37250	  1.01108	 -0.05786	  3.18662	709.29999	 16.90	
 11.899	171.783	  2.97987	  0.09358	  2.42812	  1.32164	  0.95304	 -0.08542	  3.18433	709.25000	 16.90	
 11.890	163.610	  2.98093	  0.12467	  2.38508	  1.49711	  0.79336	 -0.08335	  3.18654	709.15997	 16.90	
 11.889	155.445	  2.97987	  0.17539	  2.31514	  1.66496	  0.64910	 -0.08453	  3.18442	709.28003	 16.90	
 11.909	147.299	  2.97793	  0.24235	  2.22304	  1.82427	  0.52009	 -0.08294	  3.18413	709.25000	 17.00	
 11.902	139.148	  2.97955	  0.32840	  2.10849	  1.97233	  0.40627	 -0.08105	  3.18461	709.09998	 17.00	
 11.894	130.867	  2.97981	  0.43535	  1.97142	  2.10893	  0.30813	 -0.07567	  3.18426	709.32001	 17.00	
 11.897	122.732	  2.97984	  0.55219	  1.82007	  2.22169	  0.22374	 -0.07496	  3.18312	709.19000	 17.00	
 11.903	114.597	  2.98007	  0.68795	  1.66156	  2.31179	  0.16407	 -0.07654	  3.18479	709.21997	 17.00	
 11.893	106.346	  2.98284	  0.83675	  1.49363	  2.37753	  0.12210	 -0.07781	  3.18564	709.31000	 17.00	
 11.892	 98.155	  2.98289	  1.00030	  1.32057	  2.41635	  0.10159	 -0.07679	  3.18502	709.21997	 17.00	
 11.900	 90.000	  2.98031	  1.16437	  1.14987	  2.42682	  0.09432	 -0.07465	  3.18307	709.25000	 17.00	
 11.892	 81.845	  2.98262	  1.33567	  0.98794	  2.40968	  0.10965	 -0.07089	  3.18359	709.21002	 17.00	
 11.893	 73.654	  2.98367	  1.50974	  0.82921	  2.36765	  0.14058	 -0.07148	  3.18465	709.15997	 17.00	
 11.903	 65.403	  2.98216	  1.67762	  0.68464	  2.29624	  0.19330	 -0.07109	  3.18210	709.15002	 17.00	
 11.897	 57.268	  2.98416	  1.83711	  0.55486	  2.20577	  0.25814	 -0.07158	  3.18574	709.21997	 17.00	
 11.894	 49.133	  2.98589	  1.98540	  0.43911	  2.08909	  0.34374	 -0.06890	  3.18770	709.15997	 17.00	
 11.902	 40.852	  2.98563	  2.11805	  0.33654	  1.94956	  0.44927	 -0.06144	  3.18603	709.15002	 17.00	
 11.909	 32.701	  2.98307	  2.22901	  0.25306	  1.79585	  0.56862	 -0.05532	  3.18430	709.22998	 17.00	
 11.889	 24.555	  2.98436	  2.31574	  0.19316	  1.63864	  0.70082	 -0.05257	  3.18446	709.15002	 17.00	
 11.890	 16.390	  2.98694	  2.38034	  0.15060	  1.46811	  0.85336	 -0.05453	  3.18675	709.23999	 17.00	
 11.899	  8.217	  2.98567	  2.41712	  0.12402	  1.29442	  1.01401	 -0.05597	  3.18542	709.21002	 17.00	
 11.900	  0.000	  2.98502	  2.42625	  0.11272	  1.12674	  1.17409	 -0.06099	  3.18428	709.27002	 17.00	
 11.899	 -8.217	  2.98319	  2.40781	  0.12232	  0.95618	  1.34938	 -0.06188	  3.18449	709.28998	 17.00	
 11.890	-16.390	  2.98459	  2.36106	  0.15468	  0.79813	  1.52417	 -0.06792	  3.18524	709.29999	 17.00	
 11.889	-24.555	  2.98160	  2.28708	  0.20180	  0.65306	  1.68761	 -0.07198	  3.18161	709.21997	 17.00	
 11.909	-32.701	  2.98143	  2.19355	  0.26584	  0.51773	  1.84986	 -0.07863	  3.18329	709.21002	 17.00	
 11.902	-40.852	  2.98085	  2.07249	  0.35093	  0.40116	  1.99368	 -0.08385	  3.18094	709.15997	 17.00	
 11.894	-49.133	  2.98063	  1.93325	  0.45494	  0.29949	  2.12697	 -0.08473	  3.18269	709.09003	 17.00	
 11.897	-57.268	  2.98143	  1.78260	  0.57115	  0.21624	  2.23691	 -0.08521	  3.18221	709.17999	 17.10	
 11.903	-65.403	  2.98191	  1.62084	  0.70609	  0.15005	  2.32645	 -0.08583	  3.18470	709.14001	 17.10	
 11.893	-73.654	  2.98013	  1.44946	  0.85456	  0.10650	  2.38673	 -0.08637	  3.18209	709.17999	 17.10	
 11.892	-81.845	  2.97896	  1.27705	  1.01287	  0.07951	  2.42332	 -0.08657	  3.18366	709.14001	 17.10	
 11.900	-90.000	  2.97739	  1.10821	  1.17829	  0.07311	  2.42978	 -0.08675	  3.18022	709.15002	 17.10	
 11.892	-98.155	  2.98110	  0.94374	  1.34958	  0.08213	  2.41357	 -0.08723	  3.18434	709.20001	 17.10	
 11.893	-106.346	  2.98208	  0.78695	  1.52251	  0.11276	  2.36648	 -0.08632	  3.18441	709.20001	 17.10	
 11.903	-114.597	  2.98337	  0.64405	  1.69148	  0.16507	  2.29367	 -0.08866	  3.18464	709.14001	 17.10	
 11.897	-122.732	  2.98547	  0.51231	  1.84977	  0.23123	  2.19614	 -0.08715	  3.18502	709.12000	 17.10	
 11.894	-130.867	  2.98307	  0.39613	  1.99718	  0.31358	  2.07895	 -0.08637	  3.18352	709.15997	 17.10	
 11.902	-139.148	  2.98450	  0.29621	  2.12900	  0.41863	  1.93909	 -0.08716	  3.18488	709.28003	 17.10	
 11.909	-147.299	  2.98443	  0.21669	  2.24208	  0.53813	  1.78938	 -0.08715	  3.18452	709.15997	 17.10	
 11.889	-155.445	  2.98534	  0.15886	  2.32947	  0.67548	  1.62756	 -0.08958	  3.18554	709.19000	 17.10	
 11.890	-163.610	  2.98395	  0.11481	  2.39287	  0.82090	  1.46022	 -0.09022	  3.18532	709.08002	 17.10	
 11.899	-171.783	  2.98277	  0.08871	  2.43311	  0.97945	  1.28813	 -0.09180	  3.18534	709.17999	 17.10	
 11.900	180.000	  2.98164	  0.08367	  2.44369	  1.15015	  1.11670	 -0.08939	  3.18403	709.26001	 17.10	
 13.600	180.000	  2.90421	 -0.10214	  2.56736	  1.09162	  1.04886	 -0.11250	  3.18295	709.27002	 17.10	
 13.608	-172.853	  2.90580	 -0.09896	  2.55891	  0.92445	  1.21770	 -0.11392	  3.18378	709.21997	 17.10	
 13.611	-165.583	  2.90586	 -0.07831	  2.52420	  0.75833	  1.39441	 -0.11188	  3.18142	709.17999	 17.10	
 13.601	-158.353	  2.90818	 -0.03872	  2.46516	  0.61225	  1.56438	 -0.10982	  3.18178	709.20001	 17.10	
 13.609	-151.210	  2.90799	  0.01277	  2.38625	  0.47148	  1.73169	 -0.10704	  3.18149	709.15002	 17.10	
 13.611	-143.999	  2.90725	  0.08037	  2.28327	  0.34450	  1.88952	 -0.10284	  3.18068	709.14001	 17.10	
 13.601	-136.825	  2.90825	  0.16443	  2.16469	  0.23599	  2.03443	 -0.10230	  3.18087	709.21002	 17.10	
 13.596	-129.640	  2.90886	  0.26413	  2.03012	  0.14200	  2.16956	 -0.10077	  3.18190	709.14001	 17.10	
 13.611	-122.431	  2.90953	  0.37758	  1.88121	  0.05825	  2.29227	 -0.09926	  3.18549	709.15997	 17.10	
 13.604	-115.211	  2.90397	  0.50521	  1.71817	 -0.00906	  2.38898	 -0.09973	  3.18114	709.21997	 17.10	
 13.595	-108.042	  2.90619	  0.64656	  1.55246	 -0.05715	  2.46770	 -0.09782	  3.18327	709.16998	 17.20	
 13.607	-100.793	  2.90349	  0.79563	  1.37999	 -0.09653	  2.52467	 -0.09899	  3.18406	709.21002	 17.20	
 13.601	-93.617	  2.90469	  0.96252	  1.20499	 -0.11022	  2.55281	 -0.09843	  3.18566	709.21997	 17.20	
 13.601	-86.383	  2.90203	  1.12716	  1.03811	 -0.11174	  2.55827	 -0.10050	  3.18391	709.19000	 17.20	
 13.607	-79.207	  2.90464	  1.29935	  0.87472	 -0.09819	  2.54042	 -0.10219	  3.18514	709.22998	 17.20	
 13.595	-71.958	  2.90318	  1.47320	  0.71669	 -0.06616	  2.49235	 -0.09973	  3.18216	709.19000	 17.20	
 13.604	-64.789	  2.90730	  1.64416	  0.57392	 -0.02037	  2.42936	 -0.10182	  3.18608	709.21997	 17.20	
 13.611	-57.569	  2.90674	  1.80762	  0.44037	  0.04116	  2.34068	 -0.10596	  3.18534	709.21997	 17.20	
 13.596	-50.360	  2.90626	  1.96249	  0.32464	  0.12170	  2.22788	 -0.10636	  3.18304	709.29999	 17.20	
 13.601	-43.175	  2.90706	  2.10506	  0.21988	  0.21345	  2.10270	 -0.10722	  3.18409	709.29999	 17.20	
 13.611	-36.001	  2.90831	  2.23266	  0.13103	  0.32004	  1.96224	 -0.10686	  3.18597	709.21002	 17.20	
 13.609	-28.790	  2.90537	  2.33912	  0.05931	  0.44645	  1.80173	 -0.10251	  3.18224	709.17999	 17.20	
 13.601	-21.647	  2.90402	  2.42654	  0.00181	  0.58203	  1.63776	 -0.09819	  3.18156	709.21997	 17.20	
 13.611	-14.417	  2.90331	  2.49210	 -0.04285	  0.72901	  1.46573	 -0.09487	  3.18059	709.26001	 17.20	
 13.608	 -7.147	  2.90762	  2.53570	 -0.06494	  0.89161	  1.29361	 -0.09260	  3.18496	709.28003	 17.20	
 13.600	  0.000	  2.90901	  2.55218	 -0.07236	  1.05842	  1.12281	 -0.09004	  3.18426	709.27002	 17.20	
 13.608	  7.147	  2.90986	  2.54654	 -0.06451	  1.22691	  0.95985	 -0.08787	  3.18586	709.20001	 17.20	
 13.611	 14.417	  2.90618	  2.51101	 -0.04326	  1.40115	  0.79457	 -0.08956	  3.18070	709.15002	 17.20	
 13.601	 21.647	  2.90810	  2.45333	 -0.00459	  1.57573	  0.64137	 -0.08620	  3.18250	709.12000	 17.20	
 13.609	 28.790	  2.91105	  2.37645	  0.04877	  1.74116	  0.50643	 -0.08635	  3.18526	709.27002	 17.20	
 13.611	 36.001	  2.91082	  2.27563	  0.11862	  1.90360	  0.37680	 -0.09374	  3.18397	709.23999	 17.20	
 13.601	 43.175	  2.90979	  2.15690	  0.20329	  2.05068	  0.26594	 -0.10181	  3.18597	709.19000	 17.20	
 13.596	 50.360	  2.90952	  2.01950	  0.30480	  2.18358	  0.16884	 -0.10964	  3.18501	709.16998	 17.20	
 13.611	 57.569	  2.90995	  1.86993	  0.42154	  2.30098	  0.08922	 -0.11229	  3.18541	709.20001	 17.20	
 13.604	 64.789	  2.90541	  1.70655	  0.54929	  2.39389	  0.02258	 -0.11123	  3.18215	709.21002	 17.20	
 13.595	 71.958	  2.90638	  1.53959	  0.68892	  2.46948	 -0.03015	 -0.11065	  3.18347	709.13000	 17.20	
 13.607	 79.207	  2.90553	  1.36489	  0.84484	  2.52269	 -0.06780	 -0.10899	  3.18391	709.15002	 17.30	
 13.601	 86.383	  2.90428	  1.19223	  1.00628	  2.54777	 -0.08613	 -0.11114	  3.18210	709.22998	 17.30	
 13.601	 93.617	  2.90456	  1.02082	  1.17344	  2.55098	 -0.09077	 -0.11461	  3.18254	709.21997	 17.30	
 13.607	100.793	  2.90161	  0.85650	  1.34455	  2.52807	 -0.07890	 -0.11478	  3.17948	709.21997	 17.30	
 13.595	108.042	  2.90410	  0.70231	  1.51753	  2.48221	 -0.05024	 -0.11450	  3.18272	709.15997	 17.30	
 13.604	115.211	  2.90470	  0.55703	  1.68479	  2.41498	 -0.01053	 -0.11054	  3.18434	709.29999	 17.30	
 13.611	122.431	  2.90493	  0.42692	  1.84815	  2.31982	  0.05496	 -0.10927	  3.18341	709.33002	 17.30	
 13.596	129.640	  2.90423	  0.30592	  2.00165	  2.20920	  0.12970	 -0.10969	  3.18412	709.21002	 17.30	
 13.601	136.825	  2.90268	  0.20056	  2.14065	  2.07816	  0.22117	 -0.11352	  3.18397	709.22998	 17.30	
 13.611	143.999	  2.90223	  0.11101	  2.26346	  1.93475	  0.32551	 -0.11319	  3.18389	709.17999	 17.30	
 13.609	151.210	  2.90301	  0.03604	  2.36895	  1.77514	  0.44800	 -0.11454	  3.18407	709.20001	 17.30	
 13.601	158.353	  2.90141	 -0.02039	  2.45197	  1.61203	  0.57984	 -0.11380	  3.18305	709.23999	 17.30	
 13.611	165.583	  2.90236	 -0.06528	  2.51589	  1.43651	  0.72907	 -0.11003	  3.18225	709.28998	 17.30	
 13.608	172.853	  2.90284	 -0.09250	  2.55471	  1.26000	  0.88780	 -0.11019	  3.18369	709.23999	 17.30	
 15.298	173.587	  2.81841	 -0.26945	  2.66787	  1.19612	  0.81885	 -0.13138	  3.18340	709.21002	 17.30	
 15.291	167.167	  2.81760	 -0.24573	  2.63410	  1.37106	  0.65972	 -0.13347	  3.18457	709.22998	 17.30	
 15.307	160.676	  2.81227	 -0.20937	  2.57386	  1.54460	  0.51043	 -0.13827	  3.18081	709.23999	 17.30	
 15.300	154.261	  2.81313	 -0.16115	  2.49935	  1.71044	  0.37474	 -0.13896	  3.18240	709.21997	 17.30	
 15.288	147.854	  2.81131	 -0.09486	  2.40035	  1.87224	  0.25195	 -0.14225	  3.17978	709.25000	 17.30	
 15.293	141.428	  2.81602	 -0.01760	  2.28780	  2.03052	  0.13648	 -0.14583	  3.18174	709.32001	 17.30	
 15.299	134.985	  2.81616	  0.07476	  2.15919	  2.17252	  0.03900	 -0.14407	  3.18190	709.38000	 17.30	
 15.305	128.583	  2.81696	  0.17805	  2.01724	  2.29777	 -0.04477	 -0.14301	  3.18205	709.29999	 17.30	
 15.309	122.142	  2.81830	  0.29316	  1.86585	  2.41129	 -0.11792	 -0.14487	  3.18428	709.15997	 17.30	
 15.304	115.711	  2.81870	  0.42902	  1.70066	  2.50574	 -0.17465	 -0.14616	  3.18347	709.22998	 17.30	
 15.297	109.291	  2.81722	  0.56707	  1.53184	  2.57652	 -0.21690	 -0.15051	  3.18175	709.14001	 17.30	
 15.293	102.897	  2.81705	  0.71498	  1.36512	  2.62649	 -0.24623	 -0.15259	  3.18201	709.06000	 17.30	
 15.293	 96.458	  2.82158	  0.87840	  1.19173	  2.66110	 -0.26348	 -0.15419	  3.18499	709.09998	 17.30	
 15.300	 90.000	  2.82072	  1.04391	  1.02433	  2.66850	 -0.26533	 -0.15146	  3.18350	709.13000	 17.30	
 15.293	 83.542	  2.82127	  1.21512	  0.85795	  2.65503	 -0.25617	 -0.15020	  3.18535	709.15997	 17.40	
 15.293	 77.103	  2.81761	  1.38708	  0.69888	  2.61582	 -0.23222	 -0.14929	  3.17997	709.12000	 17.40	
 15.297	 70.709	  2.81907	  1.55658	  0.55312	  2.56095	 -0.19532	 -0.15204	  3.18115	709.15997	 17.40	
 15.304	 64.289	  2.82179	  1.72642	  0.41532	  2.48554	 -0.14568	 -0.15543	  3.18335	709.15997	 17.40	
 15.309	 57.858	  2.82167	  1.88957	  0.28742	  2.38646	 -0.07951	 -0.15541	  3.18172	709.25000	 17.40	
 15.305	 51.417	  2.81687	  2.03790	  0.17224	  2.26753	 -0.00212	 -0.15220	  3.17733	709.28998	 17.40	
 15.299	 45.015	  2.82388	  2.18232	  0.07421	  2.14035	  0.09025	 -0.14175	  3.18340	709.25000	 17.40	
 15.293	 38.572	  2.82231	  2.30655	 -0.01484	  1.99511	  0.19202	 -0.13558	  3.18131	709.27002	 17.40	
 15.288	 32.146	  2.82306	  2.41642	 -0.08767	  1.83881	  0.31098	 -0.12480	  3.18201	709.28998	 17.40	
 15.300	 25.739	  2.82294	  2.51026	 -0.14918	  1.67501	  0.43911	 -0.12275	  3.18171	709.32001	 17.40	
 15.307	 19.324	  2.82279	  2.58186	 -0.19433	  1.50561	  0.58027	 -0.11864	  3.18340	709.32001	 17.40	
 15.291	 12.833	  2.82376	  2.63116	 -0.22348	  1.33198	  0.73613	 -0.11836	  3.18163	709.34998	 17.40	
 15.298	  6.413	  2.82232	  2.65820	 -0.24309	  1.15577	  0.89705	 -0.11799	  3.18039	709.33002	 17.40	
 15.300	  0.000	  2.82305	  2.66569	 -0.25003	  0.99109	  1.05915	 -0.11571	  3.18110	709.33002	 17.40	
 15.298	 -6.413	  2.82181	  2.64827	 -0.24265	  0.82343	  1.22995	 -0.11725	  3.18121	709.37000	 17.40	
 15.291	-12.833	  2.81924	  2.61059	 -0.22198	  0.66309	  1.40377	 -0.11645	  3.17986	709.33002	 17.40	
 15.307	-19.324	  2.82043	  2.55337	 -0.18791	  0.51448	  1.57703	 -0.12190	  3.18216	709.28003	 17.40	
 15.300	-25.739	  2.81849	  2.47347	 -0.13993	  0.37571	  1.74289	 -0.11918	  3.18125	709.32001	 17.40	
 15.288	-32.146	  2.81960	  2.37305	 -0.07465	  0.24631	  1.90860	 -0.11897	  3.18137	709.21002	 17.40	
 15.293	-38.572	  2.82110	  2.25628	  0.00327	  0.13321	  2.05965	 -0.12444	  3.18383	709.34998	 17.40	
 15.299	-45.015	  2.81725	  2.12049	  0.09272	  0.03316	  2.19330	 -0.12019	  3.17777	709.27002	 17.50	
 15.305	-51.417	  2.81874	  1.97787	  0.19352	 -0.05578	  2.32062	 -0.11758	  3.18123	709.17999	 17.50	
 15.309	-57.858	  2.81483	  1.81947	  0.30738	 -0.13291	  2.42954	 -0.11695	  3.17988	709.34003	 17.50	
 15.304	-64.289	  2.81339	  1.65378	  0.43857	 -0.19007	  2.51710	 -0.11141	  3.17829	709.27002	 17.50	
 15.297	-70.709	  2.81745	  1.48619	  0.58038	 -0.23306	  2.58739	 -0.11106	  3.18037	709.23999	 17.50	
 15.293	-77.103	  2.81598	  1.31474	  0.73132	 -0.26374	  2.63722	 -0.11040	  3.18110	709.26001	 17.50	
 15.293	-83.542	  2.81480	  1.14301	  0.89140	 -0.28314	  2.66252	 -0.10742	  3.18062	709.25000	 17.50	
 15.300	-90.000	  2.81668	  0.97445	  1.05778	 -0.28937	  2.67033	 -0.10591	  3.18224	709.25000	 17.50	
 15.293	-96.458	  2.81610	  0.80989	  1.22813	 -0.27941	  2.65008	 -0.10560	  3.17974	709.29999	 17.50	
 15.293	-102.897	  2.81699	  0.65238	  1.40030	 -0.26023	  2.61435	 -0.10237	  3.18090	709.23999	 17.50	
 15.297	-109.291	  2.81685	  0.50612	  1.57105	 -0.22319	  2.55428	 -0.10420	  3.18029	709.26001	 17.50	
 15.304	-115.711	  2.81729	  0.36918	  1.73743	 -0.17710	  2.47743	 -0.10449	  3.18011	709.27002	 17.50	
 15.309	-122.142	  2.81772	  0.24157	  1.89955	 -0.11658	  2.37850	 -0.10323	  3.18031	709.19000	 17.50	
 15.305	-128.583	  2.81661	  0.13093	  2.04971	 -0.03656	  2.25711	 -0.10625	  3.17503	709.16998	 17.50	
 15.299	-134.985	  2.81987	  0.03498	  2.18897	  0.05653	  2.12427	 -0.10886	  3.17878	709.29999	 17.50	
 15.293	-141.428	  2.82241	 -0.05131	  2.31579	  0.15911	  1.98171	 -0.11209	  3.18042	709.34998	 17.50	
 15.288	-147.854	  2.82161	 -0.12647	  2.42705	  0.27295	  1.82754	 -0.11298	  3.18177	709.25000	 17.50	
 15.300	-154.261	  2.82216	 -0.18340	  2.51895	  0.40226	  1.66553	 -0.11740	  3.18146	709.17999	 17.50	
 15.307	-160.676	  2.82149	 -0.22613	  2.58934	  0.54631	  1.49410	 -0.12067	  3.18176	709.17999	 17.50	
 15.291	-167.167	  2.81765	 -0.25771	  2.63762	  0.69685	  1.31886	 -0.12637	  3.17841	709.21002	 17.50	
 15.298	-173.587	  2.81684	 -0.27553	  2.66932	  0.85631	  1.14845	 -0.13075	  3.18023	709.32001	 17.50	
 15.300	180.000	  2.81521	 -0.27974	  2.67805	  1.02331	  0.97902	 -0.13162	  3.17937	709.27002	 17.50	
 17.000	180.000	  2.72084	 -0.44434	  2.78004	  0.95955	  0.90640	 -0.14567	  3.17977	709.33002	 17.50	
 16.990	-174.179	  2.72379	 -0.44116	  2.77199	  0.79307	  1.07575	 -0.14054	  3.18035	709.34998	 17.60	
 17.009	-168.383	  2.72407	 -0.42869	  2.74744	  0.63171	  1.24441	 -0.13467	  3.18039	709.28998	 17.60	
 17.000	-162.596	  2.72732	 -0.40132	  2.70227	  0.48548	  1.41479	 -0.13101	  3.18202	709.23999	 17.60	
 16.990	-156.759	  2.72693	 -0.36358	  2.63593	  0.34116	  1.58592	 -0.12739	  3.18128	709.28998	 17.60	
 16.995	-150.919	  2.72571	 -0.31583	  2.55147	  0.20612	  1.75322	 -0.12333	  3.17976	709.40997	 17.60	
 16.988	-145.161	  2.72649	 -0.25312	  2.45284	  0.08984	  1.91135	 -0.11815	  3.17996	709.29999	 17.60	
 17.014	-139.343	  2.72515	 -0.18138	  2.33958	 -0.02042	  2.06467	 -0.11580	  3.18109	709.41998	 17.60	
 17.007	-133.546	  2.72770	 -0.09387	  2.21015	 -0.11719	  2.21013	 -0.10933	  3.18422	709.37000	 17.60	
 17.001	-127.699	  2.72393	  0.00620	  2.06175	 -0.20144	  2.33719	 -0.10858	  3.17892	709.27002	 17.60	
 17.006	-121.937	  2.72539	  0.11567	  1.91646	 -0.26873	  2.45152	 -0.10672	  3.18186	709.35999	 17.60	
 17.002	-116.134	  2.72276	  0.23754	  1.75202	 -0.33036	  2.55030	 -0.10604	  3.18021	709.38000	 17.60	
 17.001	-110.310	  2.72085	  0.36767	  1.58458	 -0.38064	  2.63097	 -0.10442	  3.17938	709.35999	 17.60	
 16.988	-104.517	  2.71942	  0.50930	  1.41533	 -0.41876	  2.69674	 -0.10541	  3.18055	709.19000	 17.60	
 17.008	-98.662	  2.71712	  0.66182	  1.24308	 -0.44352	  2.74266	 -0.10503	  3.18027	709.19000	 17.60	
 16.996	-92.909	  2.71971	  0.81958	  1.07518	 -0.45438	  2.76773	 -0.11031	  3.18215	709.28998	 17.60	
 16.996	-87.091	  2.71615	  0.98280	  0.90890	 -0.45468	  2.76806	 -0.11155	  3.17789	709.25000	 17.60	
 17.012	-81.253	  2.71983	  1.15364	  0.74555	 -0.44789	  2.75971	 -0.11781	  3.18322	709.28003	 17.60	
 16.988	-75.483	  2.72215	  1.32584	  0.59498	 -0.42177	  2.72569	 -0.11405	  3.18340	709.22998	 17.60	
 17.001	-69.690	  2.71986	  1.49352	  0.44694	 -0.38864	  2.67104	 -0.11827	  3.17923	709.19000	 17.60	
 17.002	-63.866	  2.72153	  1.66272	  0.30794	 -0.34700	  2.59879	 -0.11761	  3.18130	709.29999	 17.60	
 17.006	-58.063	  2.72024	  1.82803	  0.17994	 -0.29196	  2.50888	 -0.12229	  3.18089	709.29999	 17.60	
 17.001	-52.301	  2.72064	  1.98221	  0.06854	 -0.22491	  2.40575	 -0.12545	  3.18026	709.28003	 17.60	
 17.007	-46.454	  2.72055	  2.13168	 -0.03623	 -0.14121	  2.27938	 -0.13030	  3.17914	709.31000	 17.60	
 17.014	-40.657	  2.72196	  2.27088	 -0.12729	 -0.04723	  2.14338	 -0.13160	  3.18133	709.34003	 17.60	
 16.988	-34.839	  2.72336	  2.39406	 -0.20217	  0.06328	  1.99611	 -0.13570	  3.18155	709.35999	 17.60	
 16.995	-29.081	  2.72149	  2.49990	 -0.26967	  0.17702	  1.84067	 -0.13665	  3.18000	709.27002	 17.60	
 16.990	-23.241	  2.72167	  2.58941	 -0.32078	  0.30741	  1.67559	 -0.13867	  3.17938	709.32001	 17.60	
 17.000	-17.404	  2.72154	  2.66376	 -0.36655	  0.44685	  1.50359	 -0.13920	  3.17890	709.35999	 17.60	
 17.009	-11.617	  2.72438	  2.71917	 -0.39841	  0.59002	  1.33592	 -0.14020	  3.18247	709.39001	 17.60	
 16.990	 -5.821	  2.72482	  2.75137	 -0.41413	  0.74973	  1.15889	 -0.14022	  3.17988	709.26001	 17.70	
 17.000	  0.000	  2.72653	  2.76718	 -0.41855	  0.91679	  0.99294	 -0.14185	  3.17965	709.37000	 17.70	
 16.990	  5.821	  2.72588	  2.75982	 -0.41217	  1.08310	  0.82856	 -0.14701	  3.17920	709.28003	 17.70	
 17.009	 11.617	  2.72711	  2.73807	 -0.39756	  1.25645	  0.66828	 -0.15021	  3.18022	709.27002	 17.60	
 17.000	 17.404	  2.72752	  2.69305	 -0.37118	  1.42664	  0.51948	 -0.15001	  3.18040	709.23999	 17.70	
 16.990	 23.241	  2.72674	  2.62718	 -0.33012	  1.59552	  0.37827	 -0.15403	  3.17821	709.34998	 17.70	
 16.995	 29.081	  2.72524	  2.54181	 -0.27936	  1.76431	  0.24325	 -0.15940	  3.17675	709.23999	 17.70	
 16.988	 34.839	  2.72778	  2.44580	 -0.21902	  1.92611	  0.12344	 -0.16545	  3.18120	709.40997	 17.70	
 17.014	 40.657	  2.72589	  2.32888	 -0.14434	  2.07779	  0.01210	 -0.17492	  3.18136	709.32001	 17.70	
 17.007	 46.454	  2.72753	  2.19906	 -0.05625	  2.22083	 -0.08239	 -0.18577	  3.18185	709.29999	 17.70	
 17.001	 52.301	  2.72249	  2.05308	  0.04510	  2.34805	 -0.16778	 -0.19374	  3.17718	709.33002	 17.70	
 17.006	 58.063	  2.72236	  1.89944	  0.15472	  2.46437	 -0.24529	 -0.20048	  3.17901	709.33002	 17.70	
 17.002	 63.866	  2.72321	  1.73893	  0.27886	  2.56172	 -0.30444	 -0.19828	  3.18018	709.44000	 17.70	
 17.001	 69.690	  2.72408	  1.57044	  0.41273	  2.64012	 -0.35441	 -0.19473	  3.17990	709.34998	 17.70	
 16.988	 75.483	  2.72352	  1.39873	  0.55848	  2.69869	 -0.38951	 -0.18953	  3.17834	709.39001	 17.70	
 17.012	 81.253	  2.71862	  1.22541	  0.70740	  2.74399	 -0.42373	 -0.19019	  3.17874	709.26001	 17.70	
 16.996	 87.091	  2.72218	  1.05567	  0.87215	  2.76496	 -0.43177	 -0.18986	  3.17945	709.27002	 17.70	
 16.996	 92.909	  2.72423	  0.88964	  1.03581	  2.76793	 -0.43481	 -0.19347	  3.18176	709.28003	 17.70	
 17.008	 98.662	  2.72159	  0.72861	  1.20478	  2.75373	 -0.42714	 -0.19706	  3.18183	709.33002	 17.70	
 16.988	104.517	  2.72336	  0.57772	  1.37781	  2.71209	 -0.40084	 -0.19049	  3.17955	709.26001	 17.70	
 17.001	110.310	  2.72101	  0.42910	  1.54574	  2.66005	 -0.37665	 -0.18960	  3.18191	709.29999	 17.70	
 17.002	116.134	  2.71559	  0.29172	  1.70836	  2.58128	 -0.33617	 -0.18259	  3.17736	709.20001	 17.70	
 17.006	121.937	  2.71841	  0.16907	  1.87253	  2.48867	 -0.27716	 -0.17624	  3.18059	709.25000	 17.70	
 17.001	127.699	  2.71798	  0.05592	  2.02421	  2.37774	 -0.20848	 -0.17750	  3.17915	709.22998	 17.70	
 17.007	133.546	  2.71546	 -0.04973	  2.16774	  2.25115	 -0.13213	 -0.17379	  3.17805	709.28998	 17.70	
 17.014	139.343	  2.71420	 -0.14404	  2.30647	  2.11230	 -0.04005	 -0.17432	  3.17975	709.20001	 17.70	
 16.988	145.161	  2.71324	 -0.22249	  2.42409	  1.96488	  0.06226	 -0.17345	  3.17903	709.22998	 17.70	
 16.995	150.919	  2.71523	 -0.28497	  2.52582	  1.81330	  0.17476	 -0.17088	  3.17997	709.22998	 17.70	
 16.990	156.759	  2.71380	 -0.34481	  2.61471	  1.63720	  0.30450	 -0.16495	  3.17832	709.28998	 17.70	
 17.000	162.596	  2.71735	 -0.38244	  2.68107	  1.47797	  0.43708	 -0.15865	  3.17924	709.28998	 17.70	
 17.009	168.383	  2.71793	 -0.41731	  2.73691	  1.29855	  0.58902	 -0.15720	  3.18068	709.25000	 17.80	
 16.990	174.179	  2.72037	 -0.43574	  2.76559	  1.12894	  0.74080	 -0.15011	  3.17847	709.28998	 17.70	
 18.709	174.675	  2.61177	 -0.60321	  2.85846	  1.05100	  0.66753	 -0.16422	  3.17788	709.29999	 17.80	
 18.703	169.441	  2.61183	 -0.58514	  2.83053	  1.22311	  0.51465	 -0.17160	  3.17881	709.31000	 17.70	
 18.691	164.085	  2.60433	 -0.56777	  2.78781	  1.39018	  0.36322	 -0.17791	  3.18024	709.21997	 17.80	
 18.706	158.818	  2.60871	 -0.52197	  2.72099	  1.56192	  0.22983	 -0.17797	  3.18013	709.32001	 17.70	
 18.695	153.537	  2.60655	 -0.47310	  2.64071	  1.72657	  0.10403	 -0.18884	  3.17976	709.26001	 17.80	
 18.704	148.255	  2.60505	 -0.41643	  2.54333	  1.89222	 -0.01618	 -0.19838	  3.17969	709.32001	 17.80	
 18.698	142.952	  2.60979	 -0.34298	  2.43283	  2.04547	 -0.11583	 -0.19892	  3.18094	709.34003	 17.80	
 18.699	137.625	  2.60745	 -0.26364	  2.30716	  2.18977	 -0.21192	 -0.20358	  3.17680	709.21002	 17.80	
 18.705	132.343	  2.60710	 -0.17300	  2.17050	  2.32650	 -0.29889	 -0.20688	  3.17663	709.26001	 17.80	
 18.713	127.067	  2.60881	 -0.07229	  2.02451	  2.44986	 -0.37326	 -0.21208	  3.17878	709.21002	 17.80	
 18.700	121.794	  2.61194	  0.04183	  1.87019	  2.56046	 -0.43686	 -0.21779	  3.17915	709.17999	 17.80	
 18.698	116.504	  2.61350	  0.16462	  1.71242	  2.65313	 -0.48587	 -0.21994	  3.18079	709.25000	 17.80	
 18.707	111.165	  2.61334	  0.29591	  1.54287	  2.73109	 -0.53249	 -0.22602	  3.18023	709.22998	 17.80	
 18.690	105.863	  2.61317	  0.43655	  1.37640	  2.78646	 -0.55988	 -0.23043	  3.17742	709.21002	 17.80	
 18.696	100.583	  2.61626	  0.58948	  1.20804	  2.83449	 -0.58076	 -0.23344	  3.18175	709.19000	 17.80	
 18.700	 95.309	  2.60951	  0.73937	  1.03631	  2.85309	 -0.59888	 -0.23959	  3.17579	709.19000	 17.80	
 18.700	 90.000	  2.60839	  0.90048	  0.87002	  2.86094	 -0.60529	 -0.24252	  3.17607	709.21997	 17.80	
 18.700	 84.691	  2.61057	  1.07028	  0.70510	  2.85009	 -0.59671	 -0.23926	  3.17839	709.21002	 17.80	
 18.696	 79.417	  2.61144	  1.24179	  0.55228	  2.82053	 -0.57661	 -0.24020	  3.17674	709.16998	 17.80	
 18.690	 74.137	  2.61648	  1.41112	  0.41401	  2.77366	 -0.54184	 -0.23963	  3.17916	709.21002	 17.80	
 18.707	 68.835	  2.61199	  1.57843	  0.26913	  2.71052	 -0.51117	 -0.24311	  3.17750	709.23999	 17.80	
 18.698	 63.496	  2.61673	  1.74950	  0.14153	  2.62932	 -0.45875	 -0.24437	  3.17961	709.23999	 17.80	
 18.700	 58.206	  2.61455	  1.90682	  0.02127	  2.53046	 -0.40779	 -0.24504	  3.17957	709.27002	 17.80	
 18.713	 52.933	  2.61905	  2.06257	 -0.08415	  2.42397	 -0.33568	 -0.23773	  3.18282	709.25000	 17.80	
 18.705	 47.657	  2.61829	  2.20727	 -0.17984	  2.29367	 -0.25014	 -0.23380	  3.17871	709.28003	 17.80	
 18.699	 42.375	  2.61660	  2.34168	 -0.27258	  2.15500	 -0.16288	 -0.22547	  3.18028	709.23999	 17.80	
 18.698	 37.048	  2.61813	  2.46134	 -0.34593	  2.00089	 -0.05621	 -0.21326	  3.17731	709.37000	 17.80	
 18.704	 31.745	  2.61930	  2.56915	 -0.41027	  1.84529	  0.05398	 -0.20396	  3.17845	709.34003	 17.80	
 18.695	 26.463	  2.62233	  2.65928	 -0.46048	  1.68219	  0.18075	 -0.19548	  3.17903	709.44000	 17.80	
 18.706	 21.182	  2.61852	  2.73308	 -0.50730	  1.51639	  0.30880	 -0.18736	  3.17686	709.44000	 17.90	
 18.691	 15.915	  2.61532	  2.78923	 -0.54286	  1.34976	  0.44410	 -0.18594	  3.17582	709.28998	 17.90	
 18.703	 10.559	  2.61921	  2.83233	 -0.56288	  1.17683	  0.59980	 -0.17795	  3.17779	709.33002	 17.80	
 18.709	  5.325	  2.61823	  2.85778	 -0.58081	  1.00716	  0.75754	 -0.17148	  3.17938	709.38000	 17.90	
 18.700	  0.000	  2.61623	  2.86083	 -0.58688	  0.84087	  0.91861	 -0.17121	  3.17822	709.41998	 17.90	
 18.709	 -5.325	  2.61885	  2.84873	 -0.58000	  0.67758	  1.09055	 -0.16618	  3.17977	709.37000	 17.90	
 18.703	-10.559	  2.61736	  2.81477	 -0.56426	  0.52584	  1.25461	 -0.16372	  3.17913	709.37000	 17.90	
 18.691	-15.915	  2.62194	  2.76830	 -0.53143	  0.37765	  1.43446	 -0.15992	  3.18319	709.38000	 17.90	
 18.706	-21.182	  2.61518	  2.69394	 -0.49705	  0.23611	  1.60064	 -0.15796	  3.17670	709.40997	 17.90	
 18.695	-26.463	  2.61370	  2.61304	 -0.45521	  0.10077	  1.76775	 -0.14931	  3.17808	709.34998	 17.90	
 18.704	-31.745	  2.61577	  2.51636	 -0.39473	 -0.00863	  1.92169	 -0.14701	  3.17835	709.41998	 17.90	
 18.698	-37.048	  2.61273	  2.40164	 -0.32926	 -0.11770	  2.07117	 -0.14208	  3.17641	709.34998	 17.90	
 18.699	-42.375	  2.61271	  2.26936	 -0.24806	 -0.22021	  2.22112	 -0.14257	  3.17545	709.34003	 17.90	
 18.705	-47.657	  2.61407	  2.13340	 -0.15918	 -0.30510	  2.34977	 -0.14144	  3.17798	709.29999	 17.90	
 18.713	-52.933	  2.61362	  1.98370	 -0.05884	 -0.38701	  2.47689	 -0.13143	  3.18131	709.37000	 17.90	
 18.700	-58.206	  2.61282	  1.82559	  0.05602	 -0.44733	  2.57680	 -0.12894	  3.17842	709.38000	 17.90	
 18.698	-63.496	  2.61593	  1.66363	  0.17799	 -0.49865	  2.66459	 -0.12479	  3.17767	709.40997	 17.90	
 18.707	-68.835	  2.61032	  1.49561	  0.30664	 -0.54483	  2.73650	 -0.11914	  3.17473	709.40002	 17.90	
 18.690	-74.137	  2.61202	  1.32086	  0.45218	 -0.58150	  2.80072	 -0.11644	  3.17911	709.31000	 17.90	
 18.696	-79.417	  2.61202	  1.14685	  0.60944	 -0.60275	  2.83847	 -0.12223	  3.17815	709.22998	 17.90	
 18.700	-84.691	  2.60965	  0.98251	  0.75896	 -0.61929	  2.85969	 -0.11493	  3.17901	709.31000	 17.90	
 18.700	-90.000	  2.60425	  0.81592	  0.91601	 -0.63079	  2.86486	 -0.11376	  3.17768	709.35999	 17.90	
 18.700	-95.309	  2.60533	  0.65814	  1.08347	 -0.62070	  2.84795	 -0.11278	  3.17638	709.37000	 17.90	
 18.696	-100.583	  2.61105	  0.50826	  1.25262	 -0.60151	  2.81688	 -0.10821	  3.17954	709.27002	 17.90	
 18.690	-105.863	  2.61387	  0.36695	  1.42195	 -0.57176	  2.76653	 -0.10966	  3.17840	709.32001	 17.90	
 18.707	-111.165	  2.61594	  0.22814	  1.59358	 -0.53296	  2.69466	 -0.11219	  3.17802	709.26001	 17.90	
 18.698	-116.504	  2.61282	  0.09752	  1.75665	 -0.48944	  2.61471	 -0.10909	  3.17643	709.27002	 17.90	
 18.700	-121.794	  2.61761	 -0.01618	  1.91827	 -0.42786	  2.51501	 -0.10894	  3.17848	709.22998	 17.90	
 18.713	-127.067	  2.61735	 -0.12495	  2.07108	 -0.36150	  2.40181	 -0.11190	  3.17827	709.31000	 17.90	
 18.705	-132.343	  2.61704	 -0.22364	  2.21379	 -0.28550	  2.27554	 -0.11704	  3.17863	709.31000	 17.90	
 18.699	-137.625	  2.61928	 -0.30608	  2.34607	 -0.19286	  2.13527	 -0.12003	  3.17710	709.31000	 17.90	
 18.698	-142.952	  2.62282	 -0.37885	  2.46913	 -0.08850	  1.98753	 -0.12438	  3.17954	709.33002	 17.90	
 18.704	-148.255	  2.61723	 -0.44920	  2.57569	  0.01952	  1.82548	 -0.12596	  3.17740	709.25000	 18.00	
 18.695	-153.537	  2.62012	 -0.50245	  2.66634	  0.13853	  1.66447	 -0.12960	  3.17905	709.17999	 18.00	
 18.706	-158.818	  2.61711	 -0.54194	  2.73867	  0.27397	  1.49543	 -0.13792	  3.17505	709.28998	 18.00	
 18.691	-164.085	  2.61804	 -0.57300	  2.79649	  0.41839	  1.32656	 -0.14896	  3.17574	709.32001	 18.00	
 18.703	-169.441	  2.61641	 -0.60126	  2.84290	  0.56469	  1.15782	 -0.15283	  3.18015	709.28998	 18.00	
 18.709	-174.675	  2.61541	 -0.61513	  2.86555	  0.72129	  0.98394	 -0.15299	  3.18007	709.17999	 18.00	
 18.700	180.000	  2.61195	 -0.61475	  2.87138	  0.88537	  0.82218	 -0.15996	  3.17854	709.15002	 18.00	
 20.400	180.000	  2.49428	 -0.79244	  2.95237	  0.79749	  0.73316	 -0.15785	  3.17958	709.15997	 18.00	
 20.401	-175.153	  2.49434	 -0.79035	  2.94429	  0.63581	  0.89512	 -0.15004	  3.17540	709.21002	 18.00	
 20.407	-170.264	  2.49685	 -0.77897	  2.92390	  0.47797	  1.06710	 -0.15338	  3.17835	709.17999	 18.00	
 20.410	-165.423	  2.49597	 -0.76390	  2.88823	  0.32563	  1.23191	 -0.13923	  3.17927	709.15002	 18.00	
 20.392	-160.496	  2.49934	 -0.73763	  2.83665	  0.18853	  1.39697	 -0.13982	  3.17943	709.09998	 18.00	
 20.401	-155.705	  2.49882	 -0.70062	  2.76780	  0.05327	  1.56665	 -0.13173	  3.17840	709.16998	 18.00	
 20.405	-150.835	  2.49858	 -0.65065	  2.68084	 -0.06840	  1.73114	 -0.12970	  3.17579	709.15997	 18.00	
 20.397	-145.903	  2.50611	 -0.58923	  2.58556	 -0.17774	  1.89776	 -0.12645	  3.18064	709.19000	 18.00	
 20.392	-141.062	  2.50293	 -0.52608	  2.47219	 -0.28557	  2.05136	 -0.11569	  3.17973	709.27002	 18.00	
 20.396	-136.227	  2.50125	 -0.45092	  2.34668	 -0.38143	  2.19823	 -0.11732	  3.17966	709.21997	 18.00	
 20.408	-131.372	  2.50338	 -0.36316	  2.21093	 -0.46202	  2.33174	 -0.11695	  3.17844	709.28003	 18.00	
 20.410	-126.511	  2.49830	 -0.27075	  2.06343	 -0.53796	  2.45474	 -0.11722	  3.17619	709.22998	 18.00	
 20.400	-121.604	  2.49466	 -0.16631	  1.90738	 -0.60664	  2.57264	 -0.11267	  3.17584	709.13000	 18.00	
 20.403	-116.741	  2.49539	 -0.04877	  1.74936	 -0.65959	  2.67056	 -0.11278	  3.17648	709.15997	 18.00	
 20.413	-111.900	  2.49186	  0.07000	  1.58485	 -0.70836	  2.75829	 -0.10917	  3.17685	709.13000	 18.00	
 20.398	-107.004	  2.49273	  0.20585	  1.41457	 -0.74171	  2.82527	 -0.10904	  3.17675	709.15997	 18.00	
 20.394	-102.132	  2.49243	  0.34856	  1.24640	 -0.76488	  2.87588	 -0.10673	  3.17511	709.25000	 18.00	
 20.403	-97.332	  2.48961	  0.49294	  1.07934	 -0.78895	  2.91639	 -0.11084	  3.17727	709.25000	 18.00	
 20.392	-92.440	  2.49405	  0.65324	  0.91359	 -0.79472	  2.93799	 -0.11062	  3.17915	709.16998	 18.00	
 20.392	-87.560	  2.49380	  0.81143	  0.75458	 -0.79520	  2.94069	 -0.11375	  3.17798	709.16998	 18.00	
 20.403	-82.668	  2.49152	  0.97294	  0.59638	 -0.78990	  2.93237	 -0.11621	  3.17800	709.15997	 18.00	
 20.394	-77.868	  2.49282	  1.14057	  0.44644	 -0.77495	  2.90875	 -0.11774	  3.17943	709.25000	 18.00	
 20.398	-72.996	  2.49425	  1.31208	  0.30028	 -0.74840	  2.86551	 -0.12105	  3.18012	709.13000	 18.00	
 20.413	-68.100	  2.49101	  1.48062	  0.15793	 -0.71816	  2.80496	 -0.12465	  3.17862	709.08002	 18.00	
 20.403	-63.259	  2.48903	  1.64416	  0.02780	 -0.67926	  2.72915	 -0.12194	  3.17577	709.26001	 18.10	
 20.400	-58.396	  2.49326	  1.81016	 -0.08738	 -0.62123	  2.63548	 -0.13118	  3.17625	709.23999	 18.10	
 20.410	-53.489	  2.49695	  1.97017	 -0.19248	 -0.55469	  2.53214	 -0.13904	  3.17647	709.17999	 18.10	
 20.408	-48.628	  2.49337	  2.11626	 -0.29286	 -0.48804	  2.41771	 -0.14025	  3.17674	709.25000	 18.10	
 20.396	-43.773	  2.49645	  2.26125	 -0.38082	 -0.40262	  2.28653	 -0.14448	  3.17651	709.32001	 18.10	
 20.392	-38.938	  2.49398	  2.39165	 -0.46442	 -0.31809	  2.15036	 -0.14418	  3.17795	709.22998	 18.10	
 20.397	-34.097	  2.49566	  2.51080	 -0.52957	 -0.21039	  2.00054	 -0.14829	  3.17640	709.29999	 18.10	
 20.405	-29.165	  2.49897	  2.62506	 -0.59433	 -0.09571	  1.83795	 -0.15975	  3.18028	709.28998	 18.10	
 20.401	-24.295	  2.49705	  2.71616	 -0.64362	  0.02176	  1.67756	 -0.15779	  3.17841	709.29999	 18.10	
 20.392	-19.504	  2.49637	  2.79021	 -0.68353	  0.15349	  1.50933	 -0.16374	  3.17523	709.41998	 18.10	
 20.410	-14.577	  2.49831	  2.85668	 -0.72028	  0.29042	  1.33887	 -0.16625	  3.18002	709.34998	 18.10	
 20.407	 -9.736	  2.49787	  2.89863	 -0.73941	  0.43550	  1.17254	 -0.17220	  3.17681	709.42999	 18.10	
 20.401	 -4.847	  2.50101	  2.92782	 -0.75049	  0.59042	  1.00760	 -0.18162	  3.17855	709.29999	 18.10	
 20.400	  0.000	  2.50173	  2.94185	 -0.75809	  0.75207	  0.83810	 -0.18338	  3.17844	709.34998	 18.10	
 20.401	  4.847	  2.50085	  2.93616	 -0.75277	  0.91234	  0.68208	 -0.19196	  3.17684	709.37000	 18.10	
 20.407	  9.736	  2.50135	  2.91649	 -0.73900	  1.08135	  0.52597	 -0.19858	  3.17576	709.32001	 18.10	
 20.410	 14.577	  2.49882	  2.87913	 -0.72289	  1.24962	  0.37378	 -0.20849	  3.17493	709.33002	 18.10	
 20.392	 19.504	  2.50337	  2.82557	 -0.68539	  1.41954	  0.23952	 -0.21383	  3.17549	709.41998	 18.10	
 20.401	 24.295	  2.50011	  2.75899	 -0.65289	  1.58708	  0.09984	 -0.22079	  3.17673	709.41998	 18.10	
 20.405	 29.165	  2.50089	  2.67354	 -0.60329	  1.75366	 -0.02370	 -0.23170	  3.17602	709.34998	 18.10	
 20.397	 34.097	  2.50316	  2.57354	 -0.54173	  1.91729	 -0.13758	 -0.23927	  3.17634	709.25000	 18.10	
 20.392	 38.938	  2.50350	  2.46156	 -0.47506	  2.06976	 -0.23998	 -0.24939	  3.17729	709.25000	 18.10	
 20.396	 43.773	  2.50064	  2.33714	 -0.40306	  2.21520	 -0.33816	 -0.25886	  3.17741	709.21997	 18.10	
 20.408	 48.628	  2.50029	  2.20075	 -0.31465	  2.35091	 -0.42110	 -0.26566	  3.17695	709.20001	 18.10	
 20.410	 53.489	  2.50133	  2.05318	 -0.21434	  2.47535	 -0.49438	 -0.27239	  3.17855	709.28003	 18.10	
 20.400	 58.396	  2.50189	  1.89764	 -0.10765	  2.59052	 -0.56323	 -0.27802	  3.17945	709.25000	 18.10	
 20.403	 63.259	  2.49947	  1.73656	  0.00673	  2.68654	 -0.61910	 -0.27994	  3.17764	709.28998	 18.10	
 20.413	 68.100	  2.49553	  1.56890	  0.13018	  2.76902	 -0.66884	 -0.27788	  3.17482	709.29999	 18.10	
 20.398	 72.996	  2.49671	  1.40090	  0.26381	  2.83714	 -0.70715	 -0.27712	  3.17681	709.32001	 18.10	
 20.394	 77.868	  2.49639	  1.23388	  0.40975	  2.88586	 -0.73128	 -0.27536	  3.17593	709.38000	 18.10	
 20.403	 82.668	  2.49484	  1.06486	  0.55416	  2.92032	 -0.75600	 -0.27632	  3.17547	709.21997	 18.10	
 20.392	 87.560	  2.49418	  0.89838	  0.71062	  2.93797	 -0.76528	 -0.27165	  3.17630	709.21997	 18.20	
 20.392	 92.440	  2.49366	  0.73686	  0.87077	  2.94015	 -0.76720	 -0.27219	  3.17648	709.20001	 18.10	
 20.403	 97.332	  2.49489	  0.57732	  1.03649	  2.92979	 -0.76346	 -0.26977	  3.17822	709.26001	 18.20	
 20.394	102.132	  2.49373	  0.42815	  1.19949	  2.89885	 -0.74892	 -0.26722	  3.17732	709.22998	 18.10	
 20.398	107.004	  2.49130	  0.28142	  1.36420	  2.85412	 -0.73179	 -0.26063	  3.17771	709.21997	 18.20	
 20.413	111.900	  2.48850	  0.14313	  1.52997	  2.79183	 -0.70138	 -0.25705	  3.17672	709.27002	 18.20	
 20.403	116.741	  2.48983	  0.01687	  1.70042	  2.70865	 -0.65335	 -0.24875	  3.17594	709.17999	 18.20	
 20.400	121.604	  2.49213	 -0.10025	  1.86150	  2.61661	 -0.60014	 -0.24215	  3.17782	709.26001	 18.20	
 20.410	126.511	  2.49059	 -0.21401	  2.01761	  2.50950	 -0.54571	 -0.23426	  3.17842	709.37000	 18.20	
 20.408	131.372	  2.48630	 -0.31524	  2.16249	  2.38751	 -0.47828	 -0.23009	  3.17693	709.19000	 18.20	
 20.396	136.227	  2.48580	 -0.40308	  2.29833	  2.25627	 -0.39988	 -0.22544	  3.17611	709.15997	 18.20	
 20.392	141.062	  2.48687	 -0.48166	  2.42864	  2.11211	 -0.30666	 -0.21818	  3.17623	709.21002	 18.20	
 20.397	145.903	  2.48530	 -0.55273	  2.54410	  1.95995	 -0.20813	 -0.20970	  3.17715	709.26001	 18.20	
 20.405	150.835	  2.48449	 -0.61555	  2.64999	  1.80156	 -0.09961	 -0.20001	  3.17764	709.13000	 18.20	
 20.401	155.705	  2.48421	 -0.67048	  2.73922	  1.63445	  0.01923	 -0.19833	  3.17638	709.28998	 18.20	
 20.392	160.496	  2.48915	 -0.70788	  2.81316	  1.47321	  0.14751	 -0.19288	  3.17995	709.25000	 18.20	
 20.410	165.423	  2.48916	 -0.74444	  2.87432	  1.30236	  0.28266	 -0.18377	  3.18124	709.33002	 18.20	
 20.407	170.264	  2.48893	 -0.76905	  2.91392	  1.13123	  0.42391	 -0.17751	  3.17918	709.19000	 18.20	
 20.401	175.153	  2.49294	 -0.78234	  2.94000	  0.96170	  0.58055	 -0.17006	  3.17895	709.25000	 18.20	
  0.141	 45.000	  3.17917	  1.36986	  1.38075	  1.37118	  1.35962	  0.06018	  3.17922	709.25000	 18.20	
  4.001	128.691	  3.16986	  1.09837	  1.59331	  1.63382	  1.04437	  0.04390	  3.17883	709.16998	 18.20	
  4.002	 76.995	  3.16917	  1.41412	  1.26164	  1.70790	  0.98619	  0.05589	  3.17677	709.21997	 18.20	
  4.002	 25.892	  3.17020	  1.67957	  1.02800	  1.48154	  1.18010	  0.05861	  3.17848	709.26001	 18.20	
  4.002	-25.892	  3.17036	  1.66991	  1.03300	  1.15163	  1.51286	  0.04646	  3.17890	709.16998	 18.20	
  4.002	-76.995	  3.16950	  1.39257	  1.27590	  0.96945	  1.72490	  0.03054	  3.17820	709.25000	 18.20	
  4.001	-128.691	  3.16774	  1.08302	  1.60414	  1.03859	  1.63316	  0.02585	  3.17708	709.15002	 18.20	
  4.000	180.000	  3.16877	  0.96164	  1.75252	  1.32372	  1.32582	  0.03199	  3.17847	709.09998	 18.20	
  8.000	180.000	  3.10451	  0.51179	  2.12805	  1.25351	  1.24045	 -0.02572	  3.18011	709.13000	 18.20	
  7.991	-152.370	  3.10537	  0.58210	  2.02894	  0.89322	  1.62107	 -0.03083	  3.17897	709.16998	 18.20	
  7.997	-124.550	  3.10356	  0.79582	  1.75577	  0.63148	  1.93494	 -0.03553	  3.17628	709.19000	 18.20	
  8.006	-96.837	  3.10321	  1.13119	  1.38233	  0.51327	  2.09963	 -0.03398	  3.17657	709.27002	 18.20	
  7.988	-69.228	  3.10368	  1.51199	  1.01526	  0.55218	  2.05986	 -0.02805	  3.17634	709.29999	 18.20	
  7.997	-41.563	  3.10425	  1.85411	  0.72998	  0.74053	  1.82872	 -0.01465	  3.17719	709.09998	 18.20	
  8.008	-13.821	  3.10736	  2.06424	  0.57622	  1.05085	  1.47648	  0.00348	  3.17864	709.28003	 18.20	
  8.008	 13.821	  3.10592	  2.07307	  0.57366	  1.42884	  1.09527	  0.01294	  3.17665	709.27002	 18.20	
  7.997	 41.563	  3.10580	  1.88312	  0.71928	  1.79114	  0.77575	  0.01266	  3.17700	709.32001	 18.20	
  7.988	 69.228	  3.10588	  1.55345	  0.99866	  2.03403	  0.58612	  0.00968	  3.17795	709.20001	 18.20	
  8.006	 96.837	  3.10597	  1.17273	  1.36344	  2.09308	  0.53437	  0.00017	  3.17837	709.26001	 18.20	
  7.997	124.550	  3.10274	  0.82832	  1.73882	  1.94487	  0.63791	 -0.00164	  3.17742	709.34998	 18.20	
  7.991	152.370	  3.10192	  0.59878	  2.01676	  1.63693	  0.88473	 -0.01539	  3.17773	709.38000	 18.30	
 12.009	161.059	  2.96654	  0.12518	  2.37384	  1.54475	  0.74138	 -0.08527	  3.17815	709.34998	 18.30	
 12.013	142.081	  2.96629	  0.28286	  2.15667	  1.91972	  0.43864	 -0.07996	  3.17545	709.28003	 18.30	
 12.006	123.113	  2.96991	  0.53763	  1.83175	  2.21979	  0.22013	 -0.07612	  3.17856	709.25000	 18.30	
 12.007	104.200	  2.97191	  0.86915	  1.45124	  2.38970	  0.11026	 -0.07620	  3.17678	709.29999	 18.30	
 11.989	 85.301	  2.97047	  1.25536	  1.05548	  2.42107	  0.09448	 -0.06968	  3.17436	709.16998	 18.30	
 12.013	 66.294	  2.97270	  1.65533	  0.69774	  2.30713	  0.18112	 -0.06818	  3.17555	709.23999	 18.30	
 12.012	 47.388	  2.97521	  2.01140	  0.41093	  2.06056	  0.35946	 -0.06343	  3.17824	709.22998	 18.30	
 11.990	 28.440	  2.97205	  2.27406	  0.21523	  1.71155	  0.63123	 -0.05041	  3.17440	709.34003	 18.30	
 11.991	  9.464	  2.97477	  2.41266	  0.12054	  1.31707	  0.98392	 -0.05369	  3.17697	709.21997	 18.30	
 11.991	 -9.464	  2.97391	  2.40139	  0.12242	  0.92381	  1.37850	 -0.06098	  3.17665	709.20001	 18.30	
 11.990	-28.440	  2.97240	  2.24250	  0.22838	  0.58009	  1.76815	 -0.07580	  3.17574	709.16998	 18.30	
 12.012	-47.388	  2.97055	  1.96061	  0.42693	  0.30765	  2.10789	 -0.08779	  3.17549	709.26001	 18.30	
 12.013	-66.294	  2.97058	  1.59768	  0.71662	  0.13666	  2.33879	 -0.08948	  3.17678	709.29999	 18.30	
 11.989	-85.301	  2.96880	  1.19872	  1.08065	  0.06609	  2.43448	 -0.08835	  3.17572	709.16998	 18.30	
 12.007	-104.200	  2.96819	  0.81537	  1.47748	  0.09218	  2.38632	 -0.08907	  3.17527	709.28003	 18.30	
 12.006	-123.113	  2.97269	  0.49442	  1.86184	  0.22298	  2.19491	 -0.08843	  3.17761	709.26001	 18.30	
 12.013	-142.081	  2.97417	  0.25050	  2.18101	  0.44732	  1.88961	 -0.09003	  3.17943	709.23999	 18.30	
 12.009	-161.059	  2.97150	  0.10966	  2.38504	  0.76436	  1.51085	 -0.09321	  3.17838	709.25000	 18.30	
 16.000	180.000	  2.77540	 -0.35025	  2.72233	  0.99756	  0.94882	 -0.14095	  3.17916	709.15997	 18.30	
 15.990	-165.604	  2.77895	 -0.31992	  2.66938	  0.62024	  1.34981	 -0.13140	  3.17591	709.26001	 18.30	
 16.002	-151.165	  2.77927	 -0.22607	  2.51065	  0.28637	  1.74404	 -0.11965	  3.17678	709.21997	 18.30	
 16.002	-136.836	  2.78201	 -0.05544	  2.25396	  0.02282	  2.10525	 -0.11186	  3.17928	709.28003	 18.30	
 15.995	-122.439	  2.77840	  0.18209	  1.91738	 -0.17481	  2.40167	 -0.10892	  3.17773	709.16998	 18.30	
 15.993	-107.966	  2.77689	  0.49018	  1.52898	 -0.29789	  2.60446	 -0.10746	  3.17777	709.28998	 18.30	
 16.005	-93.629	  2.77590	  0.84620	  1.13191	 -0.35339	  2.70420	 -0.11066	  3.17918	709.17999	 18.30	
 15.992	-79.234	  2.77403	  1.23735	  0.74611	 -0.34037	  2.68723	 -0.11384	  3.17734	709.35999	 18.30	
 16.009	-64.774	  2.77535	  1.63535	  0.40372	 -0.25820	  2.56120	 -0.11629	  3.17688	709.25000	 18.30	
 15.997	-50.364	  2.77721	  2.01065	  0.12018	 -0.10477	  2.32739	 -0.12490	  3.17694	709.40002	 18.30	
 15.997	-36.045	  2.77684	  2.32748	 -0.09461	  0.12077	  2.00891	 -0.13168	  3.17698	709.34998	 18.30	
 16.000	-21.597	  2.77857	  2.55969	 -0.23720	  0.41609	  1.63264	 -0.13067	  3.17704	709.29999	 18.30	
 16.003	 -7.169	  2.78025	  2.68581	 -0.30946	  0.76803	  1.23184	 -0.12843	  3.17869	709.22998	 18.30	
 16.003	  7.169	  2.78197	  2.69493	 -0.30735	  1.15448	  0.84585	 -0.13171	  3.17646	709.38000	 18.30	
 16.000	 21.597	  2.78182	  2.59104	 -0.24295	  1.55786	  0.48689	 -0.13213	  3.17770	709.31000	 18.30	
 15.997	 36.045	  2.77769	  2.37746	 -0.10953	  1.94350	  0.18080	 -0.14206	  3.17462	709.16998	 18.40	
 15.997	 50.364	  2.77860	  2.07752	  0.09847	  2.27187	 -0.04772	 -0.16186	  3.17542	709.28003	 18.30	
 16.009	 64.774	  2.77597	  1.70996	  0.37244	  2.52327	 -0.21639	 -0.16989	  3.17522	709.22998	 18.30	
 15.992	 79.234	  2.77380	  1.30931	  0.71124	  2.67032	 -0.31141	 -0.16320	  3.17410	709.25000	 18.30	
 16.005	 93.629	  2.77447	  0.91293	  1.09201	  2.70513	 -0.33463	 -0.16822	  3.17730	709.27002	 18.30	
 15.993	107.966	  2.77208	  0.55229	  1.48709	  2.62580	 -0.29143	 -0.16310	  3.17596	709.35999	 18.40	
 15.995	122.439	  2.77268	  0.23224	  1.87869	  2.43353	 -0.17831	 -0.15617	  3.17681	709.44000	 18.40	
 16.002	136.836	  2.77113	 -0.01680	  2.21906	  2.14764	  0.00855	 -0.15600	  3.17671	709.35999	 18.40	
 16.002	151.165	  2.76886	 -0.19708	  2.48685	  1.79505	  0.25980	 -0.15153	  3.17711	709.38000	 18.40	
 15.990	165.604	  2.77108	 -0.30688	  2.65666	  1.39944	  0.57953	 -0.14583	  3.17618	709.44000	 18.40	
 20.003	168.362	  2.51746	 -0.71623	  2.88193	  1.21171	  0.39614	 -0.17860	  3.17731	709.41998	 18.40	
 20.008	156.764	  2.51298	 -0.63483	  2.74047	  1.60869	  0.07940	 -0.19401	  3.17580	709.41998	 18.40	
 20.000	145.147	  2.51608	 -0.49935	  2.51735	  1.98467	 -0.18422	 -0.20652	  3.17660	709.34003	 18.40	
 19.995	133.545	  2.51457	 -0.31612	  2.22118	  2.32299	 -0.40148	 -0.22378	  3.17591	709.40997	 18.40	
 20.009	121.926	  2.51697	 -0.07667	  1.87183	  2.59695	 -0.56143	 -0.23528	  3.17473	709.27002	 18.40	
 20.005	110.327	  2.51925	  0.21925	  1.48917	  2.79472	 -0.66531	 -0.24728	  3.17623	709.28998	 18.40	
 19.989	 98.733	  2.52178	  0.55978	  1.10198	  2.90214	 -0.71362	 -0.26001	  3.17533	709.32001	 18.40	
 19.999	 87.075	  2.52318	  0.93323	  0.71845	  2.92021	 -0.72243	 -0.26442	  3.17697	709.28003	 18.40	
 19.992	 75.457	  2.52302	  1.32770	  0.36533	  2.84456	 -0.67705	 -0.26773	  3.17440	709.27002	 18.40	
 20.009	 63.844	  2.52515	  1.72130	  0.05290	  2.68422	 -0.58731	 -0.27123	  3.17804	709.27002	 18.40	
 19.989	 52.269	  2.52911	  2.08884	 -0.20458	  2.43775	 -0.43842	 -0.26489	  3.17666	709.23999	 18.40	
 19.999	 40.602	  2.52693	  2.40846	 -0.41061	  2.11870	 -0.23730	 -0.24364	  3.17414	709.35999	 18.40	
 20.004	 29.051	  2.52970	  2.66153	 -0.56193	  1.75660	  0.01247	 -0.22446	  3.17664	709.37000	 18.40	
 20.005	 17.433	  2.52942	  2.83459	 -0.66118	  1.36272	  0.32112	 -0.20498	  3.17614	709.23999	 18.40	
 20.006	  5.780	  2.52963	  2.91647	 -0.70856	  0.96770	  0.67396	 -0.18910	  3.17707	709.25000	 18.40	
 20.006	 -5.780	  2.52783	  2.90468	 -0.70635	  0.58922	  1.05389	 -0.17806	  3.17673	709.38000	 18.40	
 20.005	-17.433	  2.52320	  2.80323	 -0.65873	  0.24037	  1.44699	 -0.16458	  3.17601	709.33002	 18.40	
 20.004	-29.051	  2.52612	  2.61035	 -0.54979	 -0.05463	  1.83563	 -0.15233	  3.17460	709.37000	 18.40	
 19.999	-40.602	  2.52279	  2.34178	 -0.39586	 -0.30371	  2.19038	 -0.14381	  3.17492	709.40997	 18.40	
 19.989	-52.269	  2.52531	  2.00594	 -0.18019	 -0.49485	  2.49239	 -0.13492	  3.17488	709.31000	 18.40	
 20.009	-63.844	  2.51759	  1.63012	  0.08209	 -0.63769	  2.72314	 -0.12789	  3.17336	709.35999	 18.40	
 19.992	-75.457	  2.52274	  1.24179	  0.39958	 -0.71697	  2.86924	 -0.12001	  3.17655	709.37000	 18.40	
 19.999	-87.075	  2.52066	  0.84819	  0.76202	 -0.75068	  2.92342	 -0.11441	  3.17583	709.35999	 18.40	
 19.989	-98.733	  2.52208	  0.47925	  1.14698	 -0.73687	  2.88908	 -0.10909	  3.17703	709.33002	 18.40	
 20.005	-110.327	  2.52067	  0.14680	  1.53887	 -0.67544	  2.76665	 -0.11397	  3.17672	709.28003	 18.40	
 20.009	-121.926	  2.52480	 -0.13327	  1.92062	 -0.55638	  2.55375	 -0.11581	  3.17594	709.37000	 18.40	
 19.995	-133.545	  2.52924	 -0.36417	  2.26693	 -0.38290	  2.26514	 -0.11836	  3.17643	709.29999	 18.40	
 20.000	-145.147	  2.53063	 -0.53694	  2.55322	 -0.15835	  1.92247	 -0.12497	  3.17643	709.39001	 18.50	
 20.008	-156.764	  2.52833	 -0.66050	  2.76626	  0.11954	  1.54054	 -0.13508	  3.17640	709.26001	 18.40	
 20.003	-168.362	  2.52740	 -0.73072	  2.89597	  0.45007	  1.14545	 -0.14875	  3.17897	709.40002	 18.40	
 20.000	180.000	  2.52008	 -0.74638	  2.92904	  0.82006	  0.75532	 -0.16226	  3.17505	709.32001	 18.50	
