FileType=PCF
NHL=14
Date=08/31/17	12:25:18
Facility=APL
Serial=16328-11
Customer=NASA
NP=6
Mach=0.050000
Calibration=1:1
CalPts=490
TstPts=95
PortNumbering=AP Standard
Units=Torr C m/s kg/m^3 deg mm 
Theta[deg]	Phi[deg]	P1[Torr]	P2[Torr]	P3[Torr]	P4[Torr]	P5[Torr]	P6[Torr]	Pt[Torr]	Ps[Abs,Torr]	Ts[C]	
  0.000	  0.000	  1.30285	  0.69839	  0.71880	  0.69566	  0.71512	  0.00561	  1.29528	706.04498	 24.00	
  1.691	128.401	  1.30333	  0.65980	  0.75361	  0.72552	  0.67816	  0.00579	  1.29632	706.04797	 24.00	
  1.692	 77.194	  1.30401	  0.70398	  0.71164	  0.73570	  0.67129	  0.00594	  1.29690	706.13501	 24.00	
  1.699	 26.182	  1.30001	  0.74119	  0.67022	  0.70402	  0.69587	  0.00426	  1.29325	706.15503	 24.00	
  1.699	-26.182	  1.30347	  0.74165	  0.66709	  0.65748	  0.74477	  0.00424	  1.29591	706.18298	 24.00	
  1.692	-77.194	  1.30073	  0.69857	  0.70011	  0.62544	  0.77679	  0.00300	  1.29493	706.03802	 24.00	
  1.691	-128.401	  1.30040	  0.64989	  0.74977	  0.63475	  0.76351	  0.00412	  1.29454	706.07898	 24.00	
  1.700	180.000	  1.30275	  0.63291	  0.77702	  0.68150	  0.71630	  0.00452	  1.29630	706.04901	 24.00	
  3.400	180.000	  1.30152	  0.56452	  0.83953	  0.67548	  0.71149	  0.00166	  1.29722	706.01501	 24.00	
  3.388	-152.325	  1.30018	  0.57396	  0.82294	  0.61746	  0.77054	  0.00084	  1.29656	706.14398	 24.00	
  3.397	-124.529	  1.29498	  0.60721	  0.77759	  0.57280	  0.81508	  0.00036	  1.29172	706.06897	 24.00	
  3.399	-96.763	  1.29454	  0.66106	  0.71969	  0.55178	  0.83916	 -0.00037	  1.29145	706.07098	 24.00	
  3.394	-69.283	  1.29372	  0.72071	  0.66115	  0.55861	  0.83239	 -0.00036	  1.29166	706.09698	 24.00	
  3.400	-41.398	  1.29682	  0.77560	  0.61672	  0.59096	  0.79946	 -0.00001	  1.29313	706.06000	 24.00	
  3.401	-14.021	  1.29779	  0.80610	  0.59553	  0.64043	  0.74645	  0.00119	  1.29361	706.00098	 24.00	
  3.401	 14.021	  1.30043	  0.80951	  0.59909	  0.70173	  0.68670	  0.00195	  1.29532	706.00598	 24.00	
  3.400	 41.398	  1.30139	  0.78201	  0.62635	  0.75860	  0.63498	  0.00267	  1.29556	706.06000	 24.00	
  3.394	 69.283	  1.30019	  0.72989	  0.67326	  0.79384	  0.60414	  0.00238	  1.29475	706.05603	 24.00	
  3.399	 96.763	  1.29627	  0.66760	  0.72870	  0.79873	  0.59591	  0.00235	  1.29018	706.01703	 24.00	
  3.397	124.529	  1.29795	  0.61685	  0.78332	  0.77883	  0.61372	  0.00273	  1.29260	706.10101	 24.00	
  3.388	152.325	  1.30162	  0.58139	  0.82587	  0.73468	  0.65569	  0.00202	  1.29731	706.00897	 24.00	
  5.099	161.165	  1.29184	  0.50262	  0.88812	  0.72816	  0.64033	 -0.00265	  1.29327	706.08698	 24.00	
  5.109	142.013	  1.29334	  0.53149	  0.85832	  0.78731	  0.58768	 -0.00257	  1.29299	705.93597	 24.00	
  5.095	123.033	  1.29375	  0.57650	  0.81118	  0.83130	  0.55079	 -0.00293	  1.29229	706.03101	 24.00	
  5.105	104.191	  1.29387	  0.63105	  0.75314	  0.85822	  0.52855	 -0.00229	  1.29202	706.00299	 24.00	
  5.093	 85.207	  1.29247	  0.69233	  0.69205	  0.86211	  0.52500	 -0.00284	  1.29088	705.95300	 24.00	
  5.104	 66.290	  1.29356	  0.75567	  0.63309	  0.84582	  0.53870	 -0.00294	  1.29268	706.13898	 24.00	
  5.094	 47.331	  1.29389	  0.81055	  0.58396	  0.80649	  0.57232	 -0.00223	  1.29261	706.00702	 24.00	
  5.089	 28.397	  1.29270	  0.85082	  0.54562	  0.75552	  0.61696	 -0.00359	  1.29178	705.98297	 24.00	
  5.096	  9.576	  1.29192	  0.87110	  0.52564	  0.69193	  0.67668	 -0.00425	  1.29220	706.03998	 24.00	
  5.096	 -9.576	  1.29251	  0.86964	  0.52400	  0.62964	  0.74062	 -0.00568	  1.29385	706.02100	 24.00	
  5.089	-28.397	  1.29149	  0.84498	  0.53877	  0.57374	  0.79992	 -0.00604	  1.29423	706.12701	 24.00	
  5.094	-47.331	  1.28769	  0.80095	  0.57046	  0.52424	  0.85098	 -0.00729	  1.29105	705.96698	 24.00	
  5.104	-66.290	  1.28775	  0.74564	  0.61805	  0.49091	  0.88916	 -0.00643	  1.29262	706.12097	 24.00	
  5.093	-85.207	  1.28634	  0.68136	  0.67606	  0.47722	  0.90340	 -0.00665	  1.29112	705.94501	 24.00	
  5.105	-104.191	  1.28680	  0.61816	  0.74083	  0.48232	  0.89740	 -0.00749	  1.29227	706.11102	 24.00	
  5.095	-123.033	  1.28341	  0.56146	  0.79835	  0.50598	  0.86550	 -0.00528	  1.28766	706.03198	 24.00	
  5.109	-142.013	  1.29018	  0.52158	  0.85266	  0.54883	  0.82368	 -0.00473	  1.29449	706.09601	 24.00	
  5.099	-161.165	  1.29341	  0.49683	  0.88762	  0.60416	  0.76603	 -0.00410	  1.29672	706.04602	 24.00	
  5.100	180.000	  1.29191	  0.49047	  0.89775	  0.66400	  0.70306	 -0.00360	  1.29413	706.03400	 24.00	
  6.800	180.000	  1.27907	  0.41334	  0.95448	  0.65132	  0.68840	 -0.01056	  1.29205	706.07098	 24.00	
  6.796	-166.229	  1.28024	  0.41928	  0.94691	  0.59203	  0.75149	 -0.00981	  1.29473	706.19800	 24.00	
  6.808	-152.311	  1.27352	  0.43368	  0.91737	  0.53101	  0.80982	 -0.01124	  1.28986	706.09601	 24.00	
  6.795	-138.383	  1.27756	  0.46634	  0.88157	  0.48292	  0.86774	 -0.01234	  1.29456	706.13300	 24.00	
  6.792	-124.591	  1.27812	  0.51014	  0.83204	  0.44528	  0.91319	 -0.01211	  1.29541	706.04602	 24.00	
  6.787	-110.754	  1.27539	  0.56070	  0.77313	  0.41720	  0.94313	 -0.01368	  1.29251	706.00299	 24.00	
  6.800	-96.985	  1.27533	  0.61920	  0.71099	  0.40364	  0.96023	 -0.01560	  1.29282	705.99500	 24.00	
  6.800	-83.015	  1.27619	  0.68357	  0.64962	  0.40330	  0.96220	 -0.01503	  1.29443	706.03998	 24.00	
  6.787	-69.246	  1.27516	  0.74466	  0.59109	  0.41594	  0.94606	 -0.01512	  1.29192	705.92798	 24.00	
  6.792	-55.409	  1.27646	  0.80502	  0.53919	  0.44171	  0.91804	 -0.01484	  1.29300	705.97198	 24.00	
  6.795	-41.617	  1.27819	  0.85645	  0.49835	  0.48166	  0.87509	 -0.01433	  1.29386	706.14899	 24.00	
  6.808	-27.689	  1.27982	  0.89779	  0.46814	  0.53096	  0.82133	 -0.01324	  1.29406	706.13202	 24.00	
  6.796	-13.771	  1.28019	  0.92157	  0.45359	  0.58575	  0.76237	 -0.01149	  1.29237	706.07098	 24.00	
  6.800	  0.000	  1.28026	  0.93156	  0.44839	  0.64644	  0.69922	 -0.01175	  1.29199	706.07898	 24.00	
  6.796	 13.771	  1.28614	  0.92863	  0.45922	  0.71224	  0.63993	 -0.01021	  1.29620	706.13300	 24.00	
  6.808	 27.689	  1.28524	  0.90559	  0.47993	  0.77208	  0.58211	 -0.00918	  1.29355	706.16302	 24.00	
  6.795	 41.617	  1.28683	  0.86855	  0.51324	  0.82815	  0.53344	 -0.00896	  1.29425	706.07098	 24.00	
  6.792	 55.409	  1.28789	  0.82072	  0.55692	  0.87546	  0.49323	 -0.00938	  1.29529	706.04498	 24.00	
  6.787	 69.246	  1.28626	  0.76199	  0.61015	  0.90388	  0.46775	 -0.00897	  1.29308	706.08801	 24.00	
  6.800	 83.015	  1.28881	  0.70142	  0.66879	  0.92436	  0.45261	 -0.00983	  1.29541	706.02899	 24.00	
  6.800	 96.985	  1.28767	  0.63642	  0.73001	  0.92459	  0.45180	 -0.00978	  1.29421	706.01801	 24.00	
  6.787	110.754	  1.28583	  0.57731	  0.78891	  0.90618	  0.46517	 -0.00952	  1.29308	705.98602	 24.00	
  6.792	124.591	  1.28405	  0.52405	  0.84371	  0.87470	  0.49013	 -0.00911	  1.29154	706.06799	 24.00	
  6.795	138.383	  1.28277	  0.48025	  0.88996	  0.82986	  0.52670	 -0.00848	  1.29086	706.07703	 24.00	
  6.808	152.311	  1.28019	  0.44427	  0.92558	  0.77484	  0.57168	 -0.00945	  1.29026	706.01099	 24.00	
  6.796	166.229	  1.28185	  0.42409	  0.94893	  0.71717	  0.62870	 -0.00934	  1.29321	706.00897	 24.00	
  8.491	168.704	  1.26922	  0.34668	  1.00526	  0.70638	  0.61001	 -0.01810	  1.29646	706.01398	 24.00	
  8.502	157.493	  1.26924	  0.36438	  0.98680	  0.76814	  0.55212	 -0.01725	  1.29426	706.02600	 24.00	
  8.494	146.194	  1.26993	  0.39416	  0.95510	  0.82724	  0.49890	 -0.01666	  1.29360	706.11603	 24.00	
  8.495	135.039	  1.27181	  0.43141	  0.91572	  0.87979	  0.45535	 -0.01881	  1.29391	706.06299	 24.00	
  8.487	123.723	  1.27624	  0.47900	  0.86827	  0.92591	  0.42129	 -0.01791	  1.29721	706.00299	 24.00	
  8.492	112.575	  1.27328	  0.53274	  0.80878	  0.95569	  0.39522	 -0.01749	  1.29384	706.04901	 24.00	
  8.510	101.220	  1.27616	  0.59486	  0.74794	  0.97692	  0.38073	 -0.01696	  1.29613	706.03400	 24.00	
  8.500	 90.000	  1.27373	  0.65724	  0.68481	  0.98112	  0.37560	 -0.01793	  1.29279	706.03802	 24.00	
  8.510	 78.780	  1.27633	  0.72147	  0.62461	  0.97688	  0.38187	 -0.01758	  1.29662	706.10797	 24.00	
  8.492	 67.425	  1.27704	  0.78612	  0.56460	  0.95566	  0.39996	 -0.01717	  1.29710	706.15002	 24.00	
  8.487	 56.277	  1.27777	  0.84424	  0.51366	  0.92400	  0.42676	 -0.01781	  1.29796	706.00897	 24.00	
  8.495	 44.961	  1.27684	  0.89784	  0.46667	  0.87866	  0.46493	 -0.01785	  1.29829	706.04797	 24.10	
  8.494	 33.806	  1.27092	  0.93596	  0.42662	  0.82195	  0.50946	 -0.01743	  1.29411	706.10101	 24.10	
  8.502	 22.507	  1.27163	  0.96737	  0.40030	  0.76375	  0.56457	 -0.01711	  1.29504	705.96698	 24.10	
  8.491	 11.296	  1.27318	  0.98693	  0.38318	  0.70221	  0.62442	 -0.01882	  1.29873	705.95599	 24.10	
  8.500	  0.000	  1.26951	  0.99204	  0.37354	  0.63413	  0.68747	 -0.01979	  1.29642	706.11798	 24.10	
  8.491	-11.296	  1.26498	  0.97957	  0.37476	  0.56977	  0.74955	 -0.01997	  1.29326	706.07898	 24.00	
  8.502	-22.507	  1.26635	  0.96015	  0.38876	  0.51100	  0.81351	 -0.01976	  1.29669	706.27002	 24.00	
  8.494	-33.806	  1.26403	  0.92346	  0.41410	  0.45729	  0.87097	 -0.02161	  1.29481	706.02600	 24.00	
  8.495	-44.961	  1.26055	  0.87854	  0.44461	  0.40839	  0.92257	 -0.02434	  1.29339	706.11603	 24.00	
  8.487	-56.277	  1.26476	  0.82683	  0.49190	  0.37397	  0.96738	 -0.02432	  1.29844	706.04797	 24.00	
  8.492	-67.425	  1.26117	  0.76480	  0.54223	  0.34878	  0.99446	 -0.02442	  1.29505	706.04602	 24.00	
  8.510	-78.780	  1.26037	  0.69970	  0.60148	  0.32918	  1.01570	 -0.02433	  1.29595	705.98401	 24.00	
  8.500	-90.000	  1.25957	  0.63504	  0.66322	  0.32601	  1.01854	 -0.02486	  1.29478	706.01801	 24.00	
  8.510	-101.220	  1.25923	  0.57207	  0.72761	  0.33066	  1.01189	 -0.02447	  1.29492	705.92200	 24.00	
  8.492	-112.575	  1.25507	  0.51091	  0.78779	  0.34786	  0.98671	 -0.02235	  1.28995	706.03101	 24.00	
  8.487	-123.723	  1.25889	  0.46120	  0.84782	  0.37645	  0.95577	 -0.02101	  1.29289	705.95300	 24.00	
  8.495	-135.039	  1.26180	  0.41532	  0.90420	  0.41282	  0.91603	 -0.02096	  1.29597	706.01801	 24.00	
  8.494	-146.194	  1.26449	  0.38139	  0.94790	  0.46038	  0.86326	 -0.01956	  1.29831	706.00098	 24.00	
  8.502	-157.493	  1.26358	  0.35552	  0.98049	  0.51428	  0.80138	 -0.01851	  1.29576	705.97803	 24.00	
  8.491	-168.704	  1.26472	  0.34093	  1.00180	  0.57363	  0.73968	 -0.01897	  1.29492	706.01801	 24.00	
  8.500	180.000	  1.26942	  0.33718	  1.01258	  0.64102	  0.67493	 -0.01968	  1.29730	706.01099	 24.00	
 10.200	180.000	  1.24623	  0.25972	  1.05938	  0.62199	  0.65265	 -0.02899	  1.29529	706.05200	 24.00	
 10.191	-170.497	  1.24279	  0.26081	  1.05217	  0.55418	  0.71862	 -0.02894	  1.29413	706.07397	 24.00	
 10.210	-161.034	  1.24251	  0.27287	  1.03558	  0.49456	  0.78328	 -0.02870	  1.29568	706.16699	 24.00	
 10.194	-151.526	  1.24076	  0.29479	  1.00509	  0.43683	  0.84552	 -0.02814	  1.29541	706.04797	 24.00	
 10.190	-142.105	  1.23973	  0.32523	  0.96588	  0.38575	  0.90318	 -0.02937	  1.29567	706.05701	 24.00	
 10.215	-132.646	  1.23539	  0.36128	  0.91751	  0.34027	  0.95236	 -0.02988	  1.29300	706.07703	 24.00	
 10.203	-123.092	  1.23773	  0.40768	  0.86456	  0.30481	  0.99862	 -0.03081	  1.29542	706.02899	 24.00	
 10.192	-113.678	  1.23909	  0.46042	  0.80596	  0.27780	  1.03282	 -0.03244	  1.29703	706.02301	 24.00	
 10.208	-104.249	  1.23849	  0.51962	  0.74171	  0.25757	  1.05734	 -0.03438	  1.29759	706.03802	 24.00	
 10.210	-94.801	  1.23724	  0.58117	  0.67509	  0.24640	  1.06938	 -0.03538	  1.29685	705.99298	 24.00	
 10.210	-85.199	  1.23850	  0.64866	  0.61027	  0.24749	  1.07105	 -0.03541	  1.29688	706.08698	 24.00	
 10.208	-75.751	  1.23995	  0.71484	  0.54838	  0.25681	  1.06137	 -0.03454	  1.29758	706.11902	 24.00	
 10.192	-66.322	  1.23947	  0.77801	  0.49019	  0.27468	  1.03915	 -0.03467	  1.29600	706.01703	 24.00	
 10.203	-56.908	  1.23837	  0.83646	  0.43901	  0.30207	  1.00560	 -0.03534	  1.29315	706.11298	 24.00	
 10.215	-47.354	  1.23910	  0.89419	  0.39237	  0.33744	  0.96422	 -0.03394	  1.29373	705.98297	 24.00	
 10.190	-37.895	  1.24234	  0.94569	  0.35588	  0.38100	  0.91707	 -0.03266	  1.29658	706.03400	 24.00	
 10.194	-28.474	  1.24052	  0.98190	  0.32766	  0.42975	  0.85962	 -0.03049	  1.29242	706.07300	 24.00	
 10.210	-18.966	  1.24509	  1.01596	  0.30728	  0.49034	  0.79782	 -0.02898	  1.29682	705.98700	 24.00	
 10.191	 -9.503	  1.24768	  1.03415	  0.29894	  0.54969	  0.73621	 -0.02933	  1.29615	706.03400	 24.00	
 10.200	  0.000	  1.24806	  1.04154	  0.29569	  0.61367	  0.67033	 -0.02917	  1.29439	706.09601	 24.00	
 10.191	  9.503	  1.24869	  1.03669	  0.30551	  0.67953	  0.60553	 -0.02790	  1.29399	706.04901	 24.00	
 10.210	 18.966	  1.25087	  1.02371	  0.31846	  0.74589	  0.54382	 -0.02670	  1.29535	706.02100	 24.00	
 10.194	 28.474	  1.25349	  0.99647	  0.34467	  0.80830	  0.48890	 -0.02624	  1.29490	706.11102	 24.00	
 10.190	 37.895	  1.25491	  0.96006	  0.37802	  0.86685	  0.43820	 -0.02678	  1.29545	706.04199	 24.00	
 10.215	 47.354	  1.25310	  0.91368	  0.41531	  0.91848	  0.39124	 -0.02655	  1.29365	705.99500	 24.00	
 10.203	 56.908	  1.25837	  0.86211	  0.46574	  0.96406	  0.35779	 -0.02627	  1.29716	706.14398	 24.00	
 10.192	 66.322	  1.25658	  0.80088	  0.51778	  0.99710	  0.32890	 -0.02646	  1.29481	706.10498	 24.00	
 10.208	 75.751	  1.25855	  0.73982	  0.57449	  1.02113	  0.31055	 -0.02777	  1.29605	706.14099	 24.00	
 10.210	 85.199	  1.25697	  0.67336	  0.63524	  1.03214	  0.30100	 -0.02943	  1.29422	706.06897	 24.00	
 10.210	 94.801	  1.25396	  0.60534	  0.69876	  1.03113	  0.29824	 -0.02894	  1.29208	706.10101	 24.00	
 10.208	104.249	  1.25583	  0.54332	  0.76241	  1.02246	  0.30755	 -0.02768	  1.29311	706.06500	 24.00	
 10.192	113.678	  1.25461	  0.48382	  0.82264	  0.99909	  0.32373	 -0.02809	  1.29324	706.11298	 24.00	
 10.203	123.092	  1.25157	  0.42790	  0.87915	  0.96500	  0.34843	 -0.02854	  1.29153	706.01801	 24.00	
 10.215	132.646	  1.25289	  0.38112	  0.93155	  0.92493	  0.38255	 -0.02862	  1.29370	706.07397	 24.00	
 10.190	142.105	  1.25085	  0.33953	  0.97651	  0.87145	  0.42570	 -0.02739	  1.29289	706.01703	 24.00	
 10.194	151.526	  1.25066	  0.30869	  1.01190	  0.81440	  0.47544	 -0.02640	  1.29352	706.04797	 24.00	
 10.210	161.034	  1.24949	  0.28261	  1.03911	  0.75280	  0.52999	 -0.02729	  1.29430	706.02600	 24.00	
 10.191	170.497	  1.24807	  0.26737	  1.05441	  0.68854	  0.58996	 -0.02853	  1.29468	706.01801	 24.00	
 11.899	171.783	  1.22330	  0.19059	  1.09995	  0.66731	  0.56779	 -0.03838	  1.29460	705.93500	 24.00	
 11.890	163.610	  1.22660	  0.20321	  1.08779	  0.73234	  0.50815	 -0.03760	  1.29588	706.08502	 24.00	
 11.889	155.445	  1.22892	  0.22455	  1.06525	  0.79774	  0.45078	 -0.03624	  1.29495	706.08002	 24.00	
 11.909	147.299	  1.22785	  0.25175	  1.03292	  0.85779	  0.39680	 -0.03676	  1.29407	706.04602	 24.00	
 11.902	139.148	  1.23127	  0.28780	  0.99548	  0.91469	  0.35182	 -0.03785	  1.29588	706.11298	 24.00	
 11.894	130.867	  1.23259	  0.33126	  0.94863	  0.96510	  0.31198	 -0.03863	  1.29633	706.09302	 24.00	
 11.897	122.732	  1.23079	  0.37932	  0.89321	  1.00500	  0.27828	 -0.03932	  1.29355	706.09698	 24.00	
 11.903	114.597	  1.23263	  0.43278	  0.83666	  1.04072	  0.25170	 -0.03935	  1.29601	706.07898	 24.00	
 11.893	106.346	  1.23218	  0.49269	  0.77272	  1.06544	  0.23272	 -0.03879	  1.29510	706.17200	 24.00	
 11.892	 98.155	  1.22905	  0.55353	  0.70849	  1.07546	  0.22272	 -0.03882	  1.29118	706.13898	 24.00	
 11.900	 90.000	  1.23604	  0.62131	  0.64877	  1.08588	  0.22075	 -0.04028	  1.29747	706.02399	 24.00	
 11.892	 81.845	  1.23299	  0.68532	  0.58478	  1.07771	  0.22481	 -0.03920	  1.29474	705.97998	 24.00	
 11.893	 73.654	  1.23379	  0.75103	  0.52449	  1.06368	  0.23653	 -0.03828	  1.29525	706.15802	 24.00	
 11.903	 65.403	  1.23259	  0.81566	  0.46608	  1.03664	  0.25710	 -0.03615	  1.29458	706.25299	 24.00	
 11.897	 57.268	  1.23222	  0.87434	  0.41447	  1.00150	  0.28586	 -0.03570	  1.29486	706.19000	 24.00	
 11.894	 49.133	  1.22828	  0.92786	  0.36638	  0.95550	  0.32051	 -0.03722	  1.29106	706.07703	 24.00	
 11.902	 40.852	  1.23069	  0.97924	  0.32484	  0.90573	  0.36433	 -0.03693	  1.29506	706.12097	 24.00	
 11.909	 32.701	  1.22875	  1.01810	  0.28911	  0.85197	  0.41022	 -0.03587	  1.29457	706.06897	 24.00	
 11.889	 24.555	  1.22641	  1.04826	  0.26255	  0.78920	  0.46381	 -0.03575	  1.29265	706.00702	 24.00	
 11.890	 16.390	  1.22450	  1.07114	  0.24010	  0.72407	  0.52293	 -0.03676	  1.29252	706.05603	 24.00	
 11.899	  8.217	  1.22311	  1.08455	  0.22641	  0.65768	  0.58471	 -0.03838	  1.29304	706.06500	 24.00	
 11.900	  0.000	  1.22383	  1.09029	  0.21888	  0.59337	  0.65014	 -0.03886	  1.29657	706.07898	 24.00	
 11.899	 -8.217	  1.21906	  1.07869	  0.22128	  0.52675	  0.71394	 -0.03759	  1.29231	706.09601	 24.00	
 11.890	-16.390	  1.22177	  1.06622	  0.23019	  0.46683	  0.78126	 -0.03757	  1.29760	706.09601	 24.00	
 11.889	-24.555	  1.22219	  1.04041	  0.24731	  0.40839	  0.84590	 -0.03800	  1.29888	706.14398	 24.00	
 11.909	-32.701	  1.21906	  1.00347	  0.26988	  0.35487	  0.90366	 -0.03953	  1.29815	706.23901	 24.00	
 11.902	-40.852	  1.21543	  0.95830	  0.30065	  0.30710	  0.95577	 -0.04166	  1.29497	706.18103	 24.00	
 11.894	-49.133	  1.21262	  0.90545	  0.34012	  0.26408	  1.00304	 -0.04408	  1.29399	706.12701	 24.00	
 11.897	-57.268	  1.21130	  0.84775	  0.38523	  0.22990	  1.04308	 -0.04434	  1.29424	706.00098	 24.00	
 11.903	-65.403	  1.21075	  0.78684	  0.43580	  0.20355	  1.07555	 -0.04354	  1.29446	706.09302	 24.00	
 11.893	-73.654	  1.21032	  0.72248	  0.49416	  0.18406	  1.09833	 -0.04481	  1.29424	705.98401	 24.00	
 11.892	-81.845	  1.21326	  0.65836	  0.55631	  0.17495	  1.11342	 -0.04590	  1.29710	706.14697	 24.00	
 11.900	-90.000	  1.21118	  0.59057	  0.62020	  0.17089	  1.11576	 -0.04694	  1.29602	706.21802	 24.00	
 11.892	-98.155	  1.20569	  0.52470	  0.68285	  0.17377	  1.10663	 -0.04558	  1.29130	706.11102	 24.00	
 11.893	-106.346	  1.21214	  0.46598	  0.75095	  0.18630	  1.09635	 -0.04413	  1.29833	706.05701	 24.00	
 11.903	-114.597	  1.20943	  0.40643	  0.81433	  0.20524	  1.06873	 -0.04180	  1.29545	706.17499	 24.00	
 11.897	-122.732	  1.20849	  0.35417	  0.87342	  0.23225	  1.03381	 -0.04150	  1.29438	706.03400	 24.00	
 11.894	-130.867	  1.21158	  0.31053	  0.92947	  0.27023	  0.99222	 -0.03932	  1.29665	705.96198	 24.00	
 11.902	-139.148	  1.21223	  0.27014	  0.97981	  0.31136	  0.94242	 -0.03904	  1.29532	706.17999	 24.00	
 11.909	-147.299	  1.21243	  0.23620	  1.02213	  0.35976	  0.88525	 -0.03827	  1.29513	706.15002	 24.00	
 11.889	-155.445	  1.21609	  0.21260	  1.05749	  0.41402	  0.82778	 -0.03840	  1.29672	706.06500	 24.00	
 11.890	-163.610	  1.21915	  0.19469	  1.08493	  0.47250	  0.76444	 -0.03783	  1.29888	706.08197	 24.00	
 11.899	-171.783	  1.21766	  0.18434	  1.09793	  0.53435	  0.69767	 -0.03857	  1.29383	706.08502	 24.00	
 11.900	180.000	  1.22173	  0.18235	  1.10625	  0.59936	  0.63311	 -0.03958	  1.29595	706.11798	 24.00	
 13.600	180.000	  1.19023	  0.10610	  1.14478	  0.57572	  0.60640	 -0.04969	  1.29446	706.12097	 24.00	
 13.608	-172.853	  1.18867	  0.10716	  1.14041	  0.51174	  0.67097	 -0.05151	  1.29605	706.08502	 24.10	
 13.611	-165.583	  1.18615	  0.11564	  1.12505	  0.44936	  0.73601	 -0.04916	  1.29489	705.96198	 24.10	
 13.601	-158.353	  1.18471	  0.13209	  1.10255	  0.39037	  0.80155	 -0.04921	  1.29529	706.10101	 24.10	
 13.609	-151.210	  1.18013	  0.15195	  1.07090	  0.33278	  0.86028	 -0.04832	  1.29229	706.10101	 24.10	
 13.611	-143.999	  1.17826	  0.18028	  1.03191	  0.28210	  0.91889	 -0.04837	  1.29250	706.13898	 24.10	
 13.601	-136.825	  1.17707	  0.21450	  0.98781	  0.23767	  0.97239	 -0.04923	  1.29252	706.00299	 24.10	
 13.596	-129.640	  1.17688	  0.25499	  0.93650	  0.19758	  1.02177	 -0.04805	  1.29342	706.12701	 24.10	
 13.611	-122.431	  1.17603	  0.29999	  0.88004	  0.16324	  1.06359	 -0.04942	  1.29331	706.06897	 24.10	
 13.604	-115.211	  1.17486	  0.35220	  0.81907	  0.13580	  1.09750	 -0.05032	  1.29307	706.16602	 24.10	
 13.595	-108.042	  1.17665	  0.40810	  0.75716	  0.11589	  1.12513	 -0.05242	  1.29364	706.20398	 24.10	
 13.607	-100.793	  1.17687	  0.46822	  0.69109	  0.10139	  1.14438	 -0.05306	  1.29464	706.11603	 24.10	
 13.601	-93.617	  1.17465	  0.52954	  0.62573	  0.09438	  1.15161	 -0.05214	  1.29212	706.14697	 24.10	
 13.601	-86.383	  1.17486	  0.59595	  0.56016	  0.09371	  1.15389	 -0.05347	  1.29193	706.01801	 24.10	
 13.607	-79.207	  1.17876	  0.66278	  0.49843	  0.09986	  1.14910	 -0.05090	  1.29519	706.10400	 24.10	
 13.595	-71.958	  1.17893	  0.72909	  0.43832	  0.11316	  1.13311	 -0.05046	  1.29488	706.06201	 24.10	
 13.604	-64.789	  1.17918	  0.79320	  0.38223	  0.13396	  1.10808	 -0.04899	  1.29375	706.03998	 24.10	
 13.611	-57.569	  1.18050	  0.85487	  0.33088	  0.15926	  1.07720	 -0.05075	  1.29498	706.10199	 24.10	
 13.596	-50.360	  1.18026	  0.91286	  0.28403	  0.19071	  1.03668	 -0.05033	  1.29365	706.05200	 24.10	
 13.601	-43.175	  1.18205	  0.96511	  0.24589	  0.23087	  0.99013	 -0.04887	  1.29313	706.05701	 24.10	
 13.611	-36.001	  1.18104	  1.01083	  0.21024	  0.27476	  0.93544	 -0.04531	  1.29077	706.09399	 24.10	
 13.609	-28.790	  1.18706	  1.05378	  0.18456	  0.32574	  0.88209	 -0.04450	  1.29578	706.14099	 24.10	
 13.601	-21.647	  1.18829	  1.08558	  0.16443	  0.38018	  0.82117	 -0.04213	  1.29530	706.23901	 24.10	
 13.611	-14.417	  1.18922	  1.10849	  0.15048	  0.44091	  0.75580	 -0.04433	  1.29382	706.15002	 24.10	
 13.608	 -7.147	  1.19326	  1.12656	  0.14375	  0.50539	  0.69123	 -0.04351	  1.29594	706.02899	 24.10	
 13.600	  0.000	  1.19265	  1.13087	  0.14383	  0.56732	  0.62672	 -0.04450	  1.29424	706.07300	 24.10	
 13.608	  7.147	  1.19590	  1.13011	  0.14953	  0.63544	  0.56211	 -0.04459	  1.29577	706.02600	 24.10	
 13.611	 14.417	  1.19693	  1.11854	  0.16140	  0.70059	  0.50025	 -0.04433	  1.29395	706.07098	 24.10	
 13.601	 21.647	  1.19938	  1.10026	  0.18099	  0.76844	  0.43994	 -0.04305	  1.29622	705.95502	 24.10	
 13.609	 28.790	  1.20073	  1.07234	  0.20510	  0.82982	  0.38456	 -0.04320	  1.29665	706.13501	 24.10	
 13.611	 36.001	  1.20305	  1.03578	  0.23738	  0.89135	  0.33372	 -0.04379	  1.29653	705.96997	 24.10	
 13.601	 43.175	  1.20083	  0.98969	  0.27290	  0.94408	  0.28694	 -0.04543	  1.29331	706.04901	 24.10	
 13.596	 50.360	  1.20320	  0.94087	  0.31521	  0.99335	  0.24843	 -0.04474	  1.29411	706.01703	 24.10	
 13.611	 57.569	  1.20403	  0.88633	  0.36121	  1.03710	  0.21273	 -0.04509	  1.29503	706.01099	 24.10	
 13.604	 64.789	  1.20450	  0.82623	  0.41390	  1.07099	  0.18648	 -0.04486	  1.29437	705.88000	 24.10	
 13.595	 71.958	  1.20352	  0.76173	  0.46949	  1.09824	  0.16514	 -0.04714	  1.29338	705.99799	 24.10	
 13.607	 79.207	  1.20473	  0.69675	  0.52967	  1.11675	  0.15158	 -0.04898	  1.29447	705.96997	 24.10	
 13.601	 86.383	  1.20582	  0.63156	  0.59247	  1.12618	  0.14493	 -0.05038	  1.29582	706.08698	 24.10	
 13.601	 93.617	  1.20183	  0.56367	  0.65440	  1.12272	  0.14435	 -0.04900	  1.29102	706.00098	 24.10	
 13.607	100.793	  1.20540	  0.50147	  0.71876	  1.11903	  0.14864	 -0.04958	  1.29601	705.86499	 24.10	
 13.595	108.042	  1.20199	  0.43865	  0.78002	  1.09855	  0.16211	 -0.04771	  1.29194	705.99500	 24.10	
 13.604	115.211	  1.20321	  0.38199	  0.84227	  1.07452	  0.18082	 -0.04832	  1.29415	705.95898	 24.10	
 13.611	122.431	  1.20051	  0.32550	  0.90067	  1.03854	  0.20563	 -0.04930	  1.29137	706.09302	 24.10	
 13.596	129.640	  1.20401	  0.28010	  0.95609	  1.00049	  0.23926	 -0.05030	  1.29601	705.97998	 24.10	
 13.601	136.825	  1.20056	  0.23701	  1.00167	  0.94973	  0.27697	 -0.04953	  1.29312	706.14398	 24.10	
 13.611	143.999	  1.20392	  0.20007	  1.04848	  0.89907	  0.32206	 -0.04755	  1.29728	705.99298	 24.10	
 13.609	151.210	  1.20026	  0.16783	  1.08281	  0.83850	  0.36870	 -0.04689	  1.29496	706.06799	 24.10	
 13.601	158.353	  1.20027	  0.14275	  1.11283	  0.77554	  0.42415	 -0.04818	  1.29723	706.03400	 24.10	
 13.611	165.583	  1.19869	  0.12378	  1.13323	  0.71088	  0.48303	 -0.04823	  1.29801	706.20599	 24.10	
 13.608	172.853	  1.19382	  0.11159	  1.14162	  0.64295	  0.54335	 -0.04900	  1.29474	706.10199	 24.10	
 15.298	173.587	  1.15936	  0.04217	  1.17517	  0.61777	  0.51647	 -0.05663	  1.29270	706.15002	 24.10	
 15.291	167.167	  1.16294	  0.05324	  1.16588	  0.68360	  0.45805	 -0.05810	  1.29296	706.08801	 24.10	
 15.307	160.676	  1.16637	  0.06549	  1.15186	  0.75117	  0.39666	 -0.05762	  1.29624	706.11798	 24.10	
 15.300	154.261	  1.16723	  0.08964	  1.12422	  0.81359	  0.34322	 -0.05583	  1.29377	706.01099	 24.10	
 15.288	147.854	  1.17070	  0.11486	  1.09489	  0.87391	  0.29314	 -0.05529	  1.29558	705.91901	 24.10	
 15.293	141.428	  1.17155	  0.14966	  1.05586	  0.93146	  0.24808	 -0.05667	  1.29628	706.07898	 24.10	
 15.299	134.985	  1.17116	  0.18683	  1.01031	  0.98418	  0.20474	 -0.05784	  1.29530	706.09399	 24.10	
 15.305	128.583	  1.17304	  0.22934	  0.96099	  1.03348	  0.16795	 -0.05948	  1.29761	706.03699	 24.10	
 15.309	122.142	  1.17144	  0.27926	  0.90410	  1.07118	  0.13934	 -0.05784	  1.29474	706.07898	 24.10	
 15.304	115.711	  1.17185	  0.33012	  0.84726	  1.10572	  0.11281	 -0.05595	  1.29516	706.09698	 24.10	
 15.297	109.291	  1.17325	  0.38700	  0.78780	  1.13292	  0.09369	 -0.05575	  1.29597	706.03101	 24.10	
 15.293	102.897	  1.17214	  0.44530	  0.72413	  1.15065	  0.07939	 -0.05555	  1.29389	706.04797	 24.10	
 15.293	 96.458	  1.17553	  0.50976	  0.66271	  1.16476	  0.07202	 -0.05564	  1.29733	706.08002	 24.10	
 15.300	 90.000	  1.17264	  0.57321	  0.59710	  1.16689	  0.06660	 -0.05712	  1.29520	706.09302	 24.20	
 15.293	 83.542	  1.17348	  0.63940	  0.53588	  1.16115	  0.07296	 -0.05733	  1.29464	706.10101	 24.10	
 15.293	 77.103	  1.17409	  0.70515	  0.47571	  1.14999	  0.08150	 -0.05608	  1.29645	706.15601	 24.20	
 15.297	 70.709	  1.17175	  0.76857	  0.41745	  1.12773	  0.09660	 -0.05389	  1.29332	706.11798	 24.10	
 15.304	 64.289	  1.17068	  0.83158	  0.36179	  1.09913	  0.11790	 -0.05231	  1.29282	706.24500	 24.20	
 15.309	 57.858	  1.17382	  0.89468	  0.31193	  1.06735	  0.14495	 -0.05196	  1.29666	706.07098	 24.10	
 15.305	 51.417	  1.17065	  0.94778	  0.26505	  1.02326	  0.17736	 -0.05381	  1.29393	706.16998	 24.10	
 15.299	 45.015	  1.17029	  1.00021	  0.22139	  0.97628	  0.21584	 -0.05190	  1.29549	706.15503	 24.20	
 15.293	 38.572	  1.16854	  1.04501	  0.18567	  0.92284	  0.25915	 -0.05122	  1.29446	706.16699	 24.20	
 15.288	 32.146	  1.16803	  1.08312	  0.15324	  0.86536	  0.30668	 -0.04842	  1.29556	706.03998	 24.20	
 15.300	 25.739	  1.17266	  1.12307	  0.12588	  0.80765	  0.36105	 -0.04748	  1.30201	706.03198	 24.10	
 15.307	 19.324	  1.16670	  1.14217	  0.10491	  0.74134	  0.41586	 -0.04745	  1.29708	706.06000	 24.20	
 15.291	 12.833	  1.16356	  1.15722	  0.08956	  0.67374	  0.47708	 -0.04702	  1.29479	706.13501	 24.20	
 15.298	  6.413	  1.16253	  1.16812	  0.07728	  0.60884	  0.53674	 -0.04821	  1.29477	706.13300	 24.20	
 15.300	  0.000	  1.16232	  1.17228	  0.07141	  0.54419	  0.60156	 -0.04770	  1.29703	706.13599	 24.20	
 15.298	 -6.413	  1.15778	  1.16301	  0.07125	  0.47789	  0.66596	 -0.04718	  1.29393	706.14899	 24.20	
 15.291	-12.833	  1.15392	  1.14711	  0.07614	  0.41605	  0.72896	 -0.04600	  1.29191	705.95599	 24.20	
 15.307	-19.324	  1.15374	  1.12707	  0.08820	  0.35590	  0.79535	 -0.04651	  1.29417	706.15198	 24.20	
 15.300	-25.739	  1.15219	  1.09843	  0.10675	  0.30190	  0.85597	 -0.04734	  1.29438	706.27301	 24.20	
 15.288	-32.146	  1.15329	  1.06389	  0.12991	  0.25135	  0.91647	 -0.04717	  1.29714	706.10400	 24.20	
 15.293	-38.572	  1.15100	  1.02015	  0.16026	  0.20340	  0.97208	 -0.04977	  1.29630	706.07898	 24.20	
 15.299	-45.015	  1.14922	  0.97129	  0.19488	  0.16123	  1.02241	 -0.05255	  1.29578	706.04602	 24.20	
 15.305	-51.417	  1.14972	  0.91987	  0.23500	  0.12642	  1.06806	 -0.05389	  1.29705	706.04498	 24.20	
 15.309	-57.858	  1.14779	  0.86100	  0.28079	  0.09525	  1.10604	 -0.05385	  1.29617	706.18701	 24.20	
 15.304	-64.289	  1.14422	  0.79689	  0.32989	  0.06742	  1.13612	 -0.05117	  1.29331	706.12097	 24.20	
 15.297	-70.709	  1.14350	  0.73304	  0.38536	  0.04880	  1.16122	 -0.05147	  1.29344	706.09003	 24.20	
 15.293	-77.103	  1.14227	  0.66766	  0.44229	  0.03540	  1.17753	 -0.05158	  1.29343	706.18103	 24.20	
 15.293	-83.542	  1.14302	  0.60360	  0.50439	  0.02638	  1.18928	 -0.05631	  1.29426	706.11902	 24.20	
 15.300	-90.000	  1.14166	  0.53898	  0.56901	  0.02513	  1.19086	 -0.05721	  1.29388	706.11102	 24.20	
 15.293	-96.458	  1.14184	  0.47594	  0.63358	  0.02888	  1.18627	 -0.05845	  1.29499	706.15900	 24.20	
 15.293	-102.897	  1.14372	  0.41498	  0.70022	  0.03776	  1.17612	 -0.05987	  1.29708	706.04199	 24.20	
 15.297	-109.291	  1.14166	  0.35665	  0.76143	  0.05167	  1.15489	 -0.05863	  1.29477	706.05701	 24.20	
 15.304	-115.711	  1.14580	  0.30382	  0.82747	  0.07391	  1.13065	 -0.05976	  1.29963	706.09399	 24.20	
 15.309	-122.142	  1.14299	  0.25249	  0.88615	  0.09863	  1.09423	 -0.05907	  1.29688	706.08801	 24.20	
 15.305	-128.583	  1.14372	  0.20760	  0.94252	  0.13367	  1.05161	 -0.05848	  1.29552	705.97498	 24.20	
 15.299	-134.985	  1.14677	  0.17021	  0.99566	  0.17176	  1.00813	 -0.05914	  1.29789	706.08502	 24.20	
 15.293	-141.428	  1.14759	  0.13485	  1.04208	  0.21409	  0.95541	 -0.05969	  1.29697	706.04498	 24.20	
 15.288	-147.854	  1.14410	  0.10409	  1.07909	  0.26134	  0.89397	 -0.05853	  1.29108	706.14203	 24.20	
 15.300	-154.261	  1.14816	  0.07739	  1.11609	  0.31089	  0.83731	 -0.05868	  1.29449	706.07703	 24.20	
 15.307	-160.676	  1.14945	  0.05919	  1.14232	  0.36590	  0.77440	 -0.05893	  1.29387	706.04797	 24.20	
 15.291	-167.167	  1.15051	  0.04730	  1.15913	  0.42748	  0.70823	 -0.05823	  1.29053	706.14203	 24.20	
 15.298	-173.587	  1.15318	  0.03963	  1.17230	  0.48891	  0.64387	 -0.05986	  1.29147	706.05603	 24.20	
 15.300	180.000	  1.15912	  0.03686	  1.18166	  0.55191	  0.58179	 -0.05853	  1.29589	706.05603	 24.20	
 17.000	180.000	  1.12687	 -0.01931	  1.21404	  0.53418	  0.55992	 -0.06132	  1.29785	706.06500	 24.20	
 16.990	-174.179	  1.12023	 -0.01654	  1.20547	  0.47099	  0.62101	 -0.06216	  1.29445	706.00598	 24.20	
 17.009	-168.383	  1.11621	 -0.01146	  1.19376	  0.41054	  0.68241	 -0.06327	  1.29375	706.18701	 24.20	
 17.000	-162.596	  1.11348	 -0.00321	  1.17816	  0.34837	  0.74593	 -0.06229	  1.29348	706.10498	 24.20	
 16.990	-156.759	  1.11737	  0.01588	  1.15873	  0.29765	  0.81212	 -0.06191	  1.30093	706.03699	 24.20	
 16.995	-150.919	  1.11252	  0.03324	  1.12701	  0.24255	  0.87068	 -0.06266	  1.29878	706.12799	 24.20	
 16.988	-145.161	  1.11028	  0.05945	  1.08812	  0.19481	  0.92690	 -0.06228	  1.29664	705.97998	 24.20	
 17.014	-139.343	  1.10661	  0.08970	  1.04456	  0.14807	  0.98162	 -0.06147	  1.29572	706.14398	 24.20	
 17.007	-133.546	  1.10585	  0.12547	  0.99708	  0.11242	  1.02913	 -0.06125	  1.29461	706.10101	 24.20	
 17.001	-127.699	  1.10588	  0.16476	  0.94506	  0.07520	  1.07636	 -0.06073	  1.29677	706.10400	 24.20	
 17.006	-121.937	  1.10366	  0.20867	  0.88672	  0.04419	  1.11515	 -0.05891	  1.29377	706.07098	 24.20	
 17.002	-116.134	  1.10439	  0.25726	  0.82829	  0.01885	  1.14926	 -0.06017	  1.29573	706.11902	 24.20	
 17.001	-110.310	  1.10730	  0.30896	  0.76879	 -0.00428	  1.18189	 -0.06042	  1.30022	706.03802	 24.20	
 16.988	-104.517	  1.10696	  0.36537	  0.70616	 -0.01678	  1.20086	 -0.05963	  1.29840	705.99500	 24.20	
 17.008	-98.662	  1.10434	  0.42452	  0.63900	 -0.02540	  1.21143	 -0.05656	  1.29382	705.96997	 24.20	
 16.996	-92.909	  1.10385	  0.48269	  0.57640	 -0.03370	  1.21965	 -0.05556	  1.29491	706.06299	 24.20	
 16.996	-87.091	  1.10585	  0.54754	  0.51479	 -0.03183	  1.22253	 -0.05042	  1.29610	706.06000	 24.20	
 17.012	-81.253	  1.10371	  0.60942	  0.45116	 -0.02926	  1.21514	 -0.04937	  1.29333	706.02399	 24.20	
 16.988	-75.483	  1.10850	  0.67593	  0.39531	 -0.01792	  1.20709	 -0.04943	  1.29748	706.16400	 24.20	
 17.001	-69.690	  1.10685	  0.73691	  0.33880	 -0.00340	  1.18571	 -0.04855	  1.29428	706.12097	 24.20	
 17.002	-63.866	  1.10876	  0.80089	  0.28697	  0.01656	  1.16197	 -0.04833	  1.29546	706.10400	 24.20	
 17.006	-58.063	  1.10688	  0.85873	  0.23694	  0.04091	  1.12754	 -0.04977	  1.29241	706.17999	 24.20	
 17.001	-52.301	  1.11215	  0.91883	  0.19572	  0.07201	  1.09309	 -0.04894	  1.29640	706.08002	 24.20	
 17.007	-46.454	  1.11216	  0.97253	  0.15642	  0.10558	  1.04866	 -0.04875	  1.29455	706.25702	 24.20	
 17.014	-40.657	  1.11390	  1.02199	  0.12093	  0.14462	  1.00111	 -0.04778	  1.29563	706.11102	 24.20	
 16.988	-34.839	  1.11409	  1.06436	  0.08993	  0.18701	  0.94718	 -0.04734	  1.29286	706.26801	 24.20	
 16.995	-29.081	  1.11898	  1.10742	  0.06549	  0.23629	  0.89277	 -0.04525	  1.29758	706.23499	 24.20	
 16.990	-23.241	  1.11719	  1.13652	  0.04567	  0.28642	  0.83148	 -0.04510	  1.29452	706.28998	 24.20	
 17.000	-17.404	  1.11852	  1.16475	  0.02666	  0.33890	  0.76909	 -0.04586	  1.29540	706.07703	 24.20	
 17.009	-11.617	  1.12290	  1.18556	  0.02054	  0.40125	  0.70697	 -0.04482	  1.29726	706.19702	 24.20	
 16.990	 -5.821	  1.12565	  1.19692	  0.01743	  0.46150	  0.64588	 -0.04554	  1.29792	706.05200	 24.20	
 17.000	  0.000	  1.12320	  1.19952	  0.01654	  0.52087	  0.58145	 -0.04691	  1.29306	706.11102	 24.20	
 16.990	  5.821	  1.12775	  1.20142	  0.02102	  0.58778	  0.51793	 -0.04701	  1.29683	706.05402	 24.20	
 17.009	 11.617	  1.12890	  1.19343	  0.03099	  0.65098	  0.45813	 -0.04654	  1.29697	706.00098	 24.20	
 17.000	 17.404	  1.12885	  1.17592	  0.04291	  0.71369	  0.39707	 -0.04651	  1.29353	705.98401	 24.20	
 16.990	 23.241	  1.13128	  1.15535	  0.06378	  0.77920	  0.34222	 -0.04749	  1.29644	705.97998	 24.20	
 16.995	 29.081	  1.13462	  1.12920	  0.08367	  0.84173	  0.28707	 -0.05072	  1.29820	706.03198	 24.20	
 16.988	 34.839	  1.13303	  1.09222	  0.11068	  0.89767	  0.23789	 -0.05239	  1.29575	706.09399	 24.20	
 17.014	 40.657	  1.13476	  1.05180	  0.14520	  0.95433	  0.19524	 -0.05531	  1.29603	706.04901	 24.20	
 17.007	 46.454	  1.13552	  1.00434	  0.18288	  1.00485	  0.15416	 -0.05767	  1.29525	706.07898	 24.20	
 17.001	 52.301	  1.13458	  0.95198	  0.22011	  1.05049	  0.11445	 -0.05627	  1.29427	706.09302	 24.20	
 17.006	 58.063	  1.13944	  0.90050	  0.27267	  1.09546	  0.09120	 -0.05661	  1.29813	706.07898	 24.20	
 17.002	 63.866	  1.13949	  0.84034	  0.31822	  1.12878	  0.06181	 -0.05666	  1.29785	706.21802	 24.20	
 17.001	 69.690	  1.14033	  0.77825	  0.36931	  1.15956	  0.03620	 -0.05763	  1.29929	706.19397	 24.20	
 16.988	 75.483	  1.14030	  0.71627	  0.43007	  1.17764	  0.03003	 -0.05772	  1.29663	706.13898	 24.20	
 17.012	 81.253	  1.13769	  0.64869	  0.48253	  1.19267	  0.01061	 -0.06195	  1.29638	706.29602	 24.20	
 16.996	 87.091	  1.14000	  0.58619	  0.54298	  1.20118	  0.00678	 -0.06115	  1.29854	706.11798	 24.20	
 16.996	 92.909	  1.13832	  0.52094	  0.60394	  1.20062	  0.00526	 -0.06085	  1.29663	706.01398	 24.20	
 17.008	 98.662	  1.14031	  0.45948	  0.66695	  1.19570	  0.01001	 -0.05902	  1.29852	706.06897	 24.20	
 16.988	104.517	  1.14029	  0.39795	  0.73015	  1.18155	  0.01952	 -0.05903	  1.29806	706.06500	 24.20	
 17.001	110.310	  1.13929	  0.33971	  0.79085	  1.16207	  0.03238	 -0.06003	  1.29852	705.97198	 24.20	
 17.002	116.134	  1.13903	  0.28682	  0.84992	  1.13201	  0.04990	 -0.06050	  1.29545	706.07098	 24.20	
 17.006	121.937	  1.13463	  0.23545	  0.90481	  1.09388	  0.07521	 -0.06188	  1.29032	706.12402	 24.20	
 17.001	127.699	  1.13975	  0.19344	  0.96320	  1.05826	  0.10779	 -0.06293	  1.29612	706.00897	 24.20	
 17.007	133.546	  1.14095	  0.14978	  1.01449	  1.01464	  0.14066	 -0.06323	  1.29773	706.17999	 24.20	
 17.014	139.343	  1.14015	  0.11079	  1.06161	  0.96274	  0.18034	 -0.06140	  1.29649	706.15601	 24.20	
 16.988	145.161	  1.13951	  0.07865	  1.10042	  0.90854	  0.22202	 -0.05908	  1.29653	706.21198	 24.20	
 16.995	150.919	  1.13912	  0.05132	  1.13661	  0.85018	  0.27076	 -0.05868	  1.29660	706.16699	 24.20	
 16.990	156.759	  1.13646	  0.02748	  1.16477	  0.78843	  0.32166	 -0.05865	  1.29679	706.26501	 24.20	
 17.000	162.596	  1.13162	  0.00708	  1.18467	  0.72273	  0.37492	 -0.06154	  1.29277	706.07397	 24.20	
 17.009	168.383	  1.13379	 -0.00684	  1.20439	  0.66092	  0.43390	 -0.06251	  1.29851	706.12701	 24.20	
 16.990	174.179	  1.12869	 -0.01478	  1.20947	  0.59618	  0.49176	 -0.06192	  1.29474	706.12799	 24.20	
 18.709	174.675	  1.08493	 -0.09283	  1.23680	  0.56121	  0.45581	 -0.05997	  1.29399	706.21997	 24.20	
 18.703	169.441	  1.08734	 -0.08363	  1.22718	  0.62533	  0.39688	 -0.06120	  1.29231	706.20001	 24.20	
 18.691	164.085	  1.09316	 -0.07126	  1.21619	  0.69081	  0.34161	 -0.06142	  1.29617	706.11298	 24.20	
 18.706	158.818	  1.09221	 -0.05389	  1.19340	  0.75235	  0.28642	 -0.05697	  1.29236	706.07300	 24.20	
 18.695	153.537	  1.09680	 -0.03364	  1.17038	  0.81581	  0.23670	 -0.05641	  1.29590	706.15802	 24.20	
 18.704	148.255	  1.09703	 -0.00614	  1.13673	  0.87548	  0.18905	 -0.05736	  1.29501	705.99200	 24.20	
 18.698	142.952	  1.09789	  0.02494	  1.09906	  0.93296	  0.14484	 -0.05803	  1.29453	706.17297	 24.20	
 18.699	137.625	  1.10010	  0.05813	  1.05917	  0.98957	  0.10368	 -0.05907	  1.29766	706.10400	 24.20	
 18.705	132.343	  1.09941	  0.09935	  1.01074	  1.03618	  0.07045	 -0.05853	  1.29554	706.06799	 24.20	
 18.713	127.067	  1.09725	  0.14122	  0.95652	  1.07941	  0.03658	 -0.05979	  1.29382	706.19800	 24.20	
 18.700	121.794	  1.10113	  0.18731	  0.90736	  1.12129	  0.00997	 -0.05841	  1.29806	706.13599	 24.20	
 18.698	116.504	  1.09879	  0.23614	  0.84769	  1.15409	 -0.01418	 -0.05613	  1.29526	706.16400	 24.20	
 18.707	111.165	  1.10040	  0.29066	  0.78862	  1.18329	 -0.03338	 -0.05302	  1.29664	706.13300	 24.20	
 18.690	105.863	  1.09708	  0.34491	  0.72682	  1.20007	 -0.04712	 -0.05317	  1.29350	706.30402	 24.20	
 18.696	100.583	  1.10079	  0.40555	  0.66803	  1.21694	 -0.05599	 -0.05302	  1.29489	706.15900	 24.20	
 18.700	 95.309	  1.09844	  0.46503	  0.60454	  1.22320	 -0.06201	 -0.05415	  1.29274	706.10400	 24.20	
 18.700	 90.000	  1.10243	  0.52922	  0.54746	  1.22816	 -0.06227	 -0.05508	  1.29625	706.24200	 24.20	
 18.700	 84.691	  1.10122	  0.59131	  0.48568	  1.22486	 -0.06089	 -0.05690	  1.29601	706.19397	 24.20	
 18.696	 79.417	  1.10141	  0.65438	  0.42911	  1.21387	 -0.05327	 -0.05565	  1.29385	706.06500	 24.20	
 18.690	 74.137	  1.09866	  0.71621	  0.37218	  1.19657	 -0.04218	 -0.05504	  1.29270	706.07098	 24.20	
 18.707	 68.835	  1.09748	  0.77788	  0.31880	  1.17388	 -0.02591	 -0.05246	  1.29259	706.14398	 24.20	
 18.698	 63.496	  1.10034	  0.84126	  0.26850	  1.14832	 -0.00452	 -0.05133	  1.29598	706.01099	 24.20	
 18.700	 58.206	  1.09908	  0.89888	  0.22064	  1.11328	  0.02008	 -0.05293	  1.29468	706.12097	 24.30	
 18.713	 52.933	  1.09691	  0.95448	  0.17485	  1.07104	  0.04921	 -0.05116	  1.29300	706.03802	 24.20	
 18.705	 47.657	  1.09839	  1.00776	  0.13645	  1.02700	  0.08524	 -0.05153	  1.29556	706.10498	 24.30	
 18.699	 42.375	  1.09596	  1.05361	  0.09735	  0.97754	  0.11963	 -0.05072	  1.29430	706.20599	 24.30	
 18.698	 37.048	  1.09613	  1.09694	  0.06526	  0.92472	  0.16242	 -0.04984	  1.29530	706.07397	 24.30	
 18.704	 31.745	  1.09489	  1.13484	  0.03562	  0.86710	  0.20783	 -0.04674	  1.29512	706.19501	 24.30	
 18.695	 26.463	  1.09653	  1.17040	  0.00877	  0.80969	  0.25715	 -0.04307	  1.30042	706.12097	 24.30	
 18.706	 21.182	  1.09248	  1.19342	 -0.01330	  0.74693	  0.30876	 -0.04111	  1.29745	706.00299	 24.20	
 18.691	 15.915	  1.09038	  1.21106	 -0.03011	  0.68231	  0.36302	 -0.04203	  1.29553	706.16302	 24.30	
 18.703	 10.559	  1.08954	  1.22617	 -0.04424	  0.61577	  0.42353	 -0.04134	  1.29732	706.21399	 24.30	
 18.709	  5.325	  1.08443	  1.22987	 -0.05304	  0.55251	  0.48081	 -0.03960	  1.29310	706.12500	 24.30	
 18.700	  0.000	  1.08242	  1.22934	 -0.05766	  0.48683	  0.54262	 -0.04015	  1.29226	706.11102	 24.30	
 18.709	 -5.325	  1.08231	  1.22694	 -0.06013	  0.42581	  0.60547	 -0.03979	  1.29422	706.04797	 24.30	
 18.703	-10.559	  1.07800	  1.21325	 -0.05658	  0.36552	  0.66633	 -0.03988	  1.29194	706.18103	 24.30	
 18.691	-15.915	  1.08130	  1.20025	 -0.04781	  0.30661	  0.73439	 -0.04041	  1.29704	706.16699	 24.30	
 18.706	-21.182	  1.07778	  1.17512	 -0.03662	  0.25203	  0.79320	 -0.04030	  1.29543	706.14398	 24.30	
 18.695	-26.463	  1.07677	  1.14533	 -0.01903	  0.20008	  0.85371	 -0.04187	  1.29505	706.27002	 24.30	
 18.704	-31.745	  1.07574	  1.11248	 -0.00003	  0.14822	  0.91411	 -0.04237	  1.29909	706.14398	 24.30	
 18.698	-37.048	  1.07408	  1.06944	  0.02690	  0.10441	  0.96817	 -0.04347	  1.29754	706.22900	 24.30	
 18.699	-42.375	  1.07170	  1.02225	  0.05888	  0.06206	  1.01976	 -0.04200	  1.29635	706.18701	 24.30	
 18.705	-47.657	  1.07097	  0.97180	  0.09380	  0.02640	  1.06640	 -0.04459	  1.29609	706.10199	 24.30	
 18.713	-52.933	  1.06658	  0.91342	  0.13177	 -0.00905	  1.10686	 -0.04537	  1.29246	706.03998	 24.30	
 18.700	-58.206	  1.06508	  0.85584	  0.17519	 -0.03874	  1.14554	 -0.04345	  1.29500	706.13501	 24.30	
 18.698	-63.496	  1.06672	  0.79793	  0.22332	 -0.06240	  1.17842	 -0.04301	  1.29679	706.15002	 24.30	
 18.707	-68.835	  1.06453	  0.73368	  0.27450	 -0.08177	  1.20229	 -0.04229	  1.29556	706.15802	 24.30	
 18.690	-74.137	  1.06454	  0.67054	  0.33031	 -0.09693	  1.22379	 -0.04291	  1.29653	706.10199	 24.30	
 18.696	-79.417	  1.06625	  0.60672	  0.38953	 -0.10749	  1.23909	 -0.04238	  1.29836	706.06000	 24.30	
 18.700	-84.691	  1.06019	  0.54042	  0.44627	 -0.11619	  1.24172	 -0.04378	  1.29342	706.03101	 24.30	
 18.700	-90.000	  1.06309	  0.47828	  0.51046	 -0.11600	  1.24615	 -0.04562	  1.29686	706.11798	 24.30	
 18.700	-95.309	  1.05896	  0.41553	  0.57092	 -0.11561	  1.23860	 -0.05120	  1.29320	706.15198	 24.30	
 18.696	-100.583	  1.06244	  0.35694	  0.63668	 -0.10943	  1.23415	 -0.05296	  1.29859	706.09399	 24.30	
 18.690	-105.863	  1.05870	  0.29997	  0.69800	 -0.09559	  1.21171	 -0.05376	  1.29244	705.96997	 24.30	
 18.707	-111.165	  1.05812	  0.24510	  0.76068	 -0.07898	  1.18869	 -0.05508	  1.29145	706.08502	 24.30	
 18.698	-116.504	  1.06394	  0.19476	  0.82717	 -0.05876	  1.16669	 -0.05743	  1.29961	706.09698	 24.30	
 18.700	-121.794	  1.05959	  0.14586	  0.88227	 -0.03566	  1.12970	 -0.05886	  1.29477	706.14899	 24.30	
 18.713	-127.067	  1.06178	  0.10171	  0.94114	 -0.00682	  1.09282	 -0.06096	  1.29774	706.01801	 24.30	
 18.705	-132.343	  1.06223	  0.06324	  0.99383	  0.02880	  1.04665	 -0.05998	  1.29585	706.01398	 24.30	
 18.699	-137.625	  1.06027	  0.02761	  1.03955	  0.06557	  0.99531	 -0.06193	  1.29182	706.03802	 24.30	
 18.698	-142.952	  1.06578	 -0.00321	  1.08866	  0.10859	  0.94494	 -0.06315	  1.29632	706.01398	 24.30	
 18.704	-148.255	  1.06871	 -0.02962	  1.12910	  0.15529	  0.88949	 -0.06148	  1.29735	706.15802	 24.30	
 18.695	-153.537	  1.07134	 -0.05273	  1.16467	  0.20511	  0.83083	 -0.06136	  1.29892	706.07898	 24.30	
 18.706	-158.818	  1.07468	 -0.07106	  1.19267	  0.25832	  0.76986	 -0.06137	  1.30027	706.07098	 24.30	
 18.691	-164.085	  1.07394	 -0.08340	  1.21040	  0.31281	  0.70749	 -0.06047	  1.29514	705.93799	 24.30	
 18.703	-169.441	  1.07705	 -0.09417	  1.22791	  0.37361	  0.64272	 -0.06162	  1.29645	705.91302	 24.30	
 18.709	-174.675	  1.07947	 -0.09811	  1.23679	  0.43354	  0.58016	 -0.06039	  1.29566	705.95599	 24.30	
 18.700	180.000	  1.08261	 -0.09724	  1.23909	  0.49658	  0.51833	 -0.06141	  1.29469	705.95001	 24.30	
 20.400	180.000	  1.03511	 -0.18239	  1.26178	  0.45751	  0.47425	 -0.05684	  1.29572	705.88202	 24.30	
 20.401	-175.153	  1.02989	 -0.18343	  1.25871	  0.39341	  0.53559	 -0.05615	  1.29448	705.89099	 24.30	
 20.407	-170.264	  1.02638	 -0.17905	  1.24869	  0.33284	  0.59773	 -0.05519	  1.29353	705.89301	 24.30	
 20.410	-165.423	  1.02371	 -0.17253	  1.23641	  0.27183	  0.66274	 -0.05739	  1.29464	705.96997	 24.30	
 20.392	-160.496	  1.02466	 -0.16025	  1.22041	  0.21643	  0.72818	 -0.05697	  1.29924	706.06500	 24.30	
 20.401	-155.705	  1.01475	 -0.14516	  1.18859	  0.16102	  0.78361	 -0.05615	  1.29187	706.07300	 24.30	
 20.405	-150.835	  1.01538	 -0.12498	  1.15945	  0.11179	  0.84487	 -0.05729	  1.29456	706.10797	 24.30	
 20.397	-145.903	  1.01522	 -0.09926	  1.12350	  0.06484	  0.90510	 -0.06006	  1.29513	705.98700	 24.30	
 20.392	-141.062	  1.01487	 -0.07292	  1.08379	  0.02040	  0.96152	 -0.06106	  1.29773	706.07300	 24.30	
 20.396	-136.227	  1.01222	 -0.04045	  1.03579	 -0.01937	  1.01263	 -0.06037	  1.29647	706.01398	 24.30	
 20.408	-131.372	  1.01116	 -0.00688	  0.98694	 -0.05719	  1.06195	 -0.05593	  1.29774	705.95203	 24.30	
 20.410	-126.511	  1.00786	  0.03367	  0.92937	 -0.08994	  1.10379	 -0.05604	  1.29444	705.87701	 24.30	
 20.400	-121.604	  1.01223	  0.07815	  0.87628	 -0.11576	  1.14597	 -0.05609	  1.29854	706.09302	 24.30	
 20.403	-116.741	  1.01004	  0.12510	  0.81447	 -0.14096	  1.17887	 -0.05456	  1.29655	706.00598	 24.30	
 20.413	-111.900	  1.00927	  0.17410	  0.75295	 -0.16270	  1.20816	 -0.05137	  1.29724	706.06299	 24.30	
 20.398	-107.004	  1.00723	  0.22694	  0.68794	 -0.18043	  1.22970	 -0.05055	  1.29506	705.99200	 24.30	
 20.394	-102.132	  1.00894	  0.28367	  0.62463	 -0.19187	  1.24767	 -0.04855	  1.29582	705.96399	 24.30	
 20.403	-97.332	  1.00845	  0.33953	  0.56142	 -0.20111	  1.25909	 -0.04567	  1.29515	705.95203	 24.30	
 20.392	-92.440	  1.00913	  0.40088	  0.49814	 -0.20498	  1.26557	 -0.04446	  1.29538	705.96698	 24.30	
 20.392	-87.560	  1.01101	  0.46573	  0.43473	 -0.20419	  1.26824	 -0.04181	  1.29683	706.10498	 24.30	
 20.403	-82.668	  1.01093	  0.52945	  0.37360	 -0.20001	  1.26309	 -0.04197	  1.29611	705.99298	 24.30	
 20.394	-77.868	  1.01091	  0.59211	  0.31494	 -0.19324	  1.25365	 -0.03937	  1.29507	706.06000	 24.30	
 20.398	-72.996	  1.01056	  0.65548	  0.25860	 -0.18151	  1.23827	 -0.03809	  1.29406	706.10999	 24.30	
 20.413	-68.100	  1.01324	  0.72158	  0.20368	 -0.16595	  1.21978	 -0.03971	  1.29546	706.00098	 24.40	
 20.403	-63.259	  1.01623	  0.78421	  0.15604	 -0.14394	  1.19384	 -0.03855	  1.29682	706.01099	 24.30	
 20.400	-58.396	  1.01890	  0.84734	  0.10814	 -0.12089	  1.16510	 -0.03886	  1.29882	706.09698	 24.40	
 20.410	-53.489	  1.01672	  0.90375	  0.06370	 -0.09263	  1.12491	 -0.03905	  1.29541	705.98700	 24.40	
 20.408	-48.628	  1.01776	  0.95832	  0.02562	 -0.06265	  1.08271	 -0.03935	  1.29460	705.91101	 24.40	
 20.396	-43.773	  1.01893	  1.01108	 -0.01063	 -0.02484	  1.03529	 -0.03968	  1.29349	705.93799	 24.40	
 20.392	-38.938	  1.02014	  1.05789	 -0.04094	  0.01462	  0.98471	 -0.03993	  1.29326	705.96899	 24.40	
 20.397	-34.097	  1.02473	  1.10285	 -0.06636	  0.05966	  0.93272	 -0.03896	  1.29444	706.02301	 24.40	
 20.405	-29.165	  1.02659	  1.14422	 -0.09228	  0.10490	  0.87649	 -0.03874	  1.29646	706.02899	 24.40	
 20.401	-24.295	  1.02822	  1.17661	 -0.11044	  0.15631	  0.81606	 -0.03863	  1.29493	706.04797	 24.40	
 20.392	-19.504	  1.02852	  1.20235	 -0.12426	  0.20947	  0.75427	 -0.03749	  1.29396	706.06897	 24.40	
 20.410	-14.577	  1.03196	  1.22784	 -0.13654	  0.26449	  0.69349	 -0.03611	  1.29830	706.05402	 24.40	
 20.407	 -9.736	  1.03543	  1.24479	 -0.14212	  0.32542	  0.63038	 -0.03703	  1.29874	706.05200	 24.40	
 20.401	 -4.847	  1.03480	  1.25252	 -0.14434	  0.38630	  0.56484	 -0.03570	  1.29571	706.04797	 24.40	
 20.400	  0.000	  1.03422	  1.25503	 -0.14236	  0.44567	  0.50307	 -0.03655	  1.29325	705.94202	 24.40	
 20.401	  4.847	  1.03985	  1.25825	 -0.13715	  0.51301	  0.44219	 -0.03711	  1.29740	705.96899	 24.40	
 20.407	  9.736	  1.03969	  1.24975	 -0.12842	  0.57272	  0.38420	 -0.03597	  1.29508	705.98602	 24.40	
 20.410	 14.577	  1.04088	  1.23788	 -0.11629	  0.63901	  0.32462	 -0.03658	  1.29523	706.04602	 24.40	
 20.392	 19.504	  1.04859	  1.22548	 -0.09860	  0.70766	  0.27019	 -0.03594	  1.30122	706.05603	 24.40	
 20.401	 24.295	  1.04529	  1.19921	 -0.08106	  0.76700	  0.21650	 -0.03789	  1.29710	705.96198	 24.40	
 20.405	 29.165	  1.04669	  1.16992	 -0.05793	  0.82916	  0.16523	 -0.04093	  1.29695	705.94702	 24.40	
 20.397	 34.097	  1.04938	  1.13706	 -0.03033	  0.88982	  0.11937	 -0.04404	  1.29880	705.88800	 24.40	
 20.392	 38.938	  1.05063	  1.09688	  0.00073	  0.94602	  0.07625	 -0.04683	  1.29762	705.96698	 24.40	
 20.396	 43.773	  1.04871	  1.04921	  0.03358	  0.99583	  0.03639	 -0.04802	  1.29396	706.01501	 24.40	
 20.408	 48.628	  1.05024	  1.00209	  0.06986	  1.04619	 -0.00034	 -0.04812	  1.29540	705.92999	 24.40	
 20.410	 53.489	  1.04779	  0.94747	  0.10880	  1.08820	 -0.03456	 -0.04938	  1.29252	706.00098	 24.40	
 20.400	 58.396	  1.05080	  0.89211	  0.15443	  1.12907	 -0.06122	 -0.04969	  1.29426	705.98999	 24.40	
 20.403	 63.259	  1.05236	  0.83435	  0.20114	  1.16498	 -0.08554	 -0.04741	  1.29558	705.88300	 24.40	
 20.413	 68.100	  1.05352	  0.77483	  0.24989	  1.19522	 -0.10729	 -0.04802	  1.29730	705.96198	 24.40	
 20.398	 72.996	  1.05135	  0.71025	  0.30248	  1.21505	 -0.12331	 -0.05027	  1.29363	705.92401	 24.40	
 20.394	 77.868	  1.05321	  0.64859	  0.35795	  1.23472	 -0.13585	 -0.05074	  1.29581	706.03802	 24.40	
 20.403	 82.668	  1.05134	  0.58469	  0.41271	  1.24495	 -0.14473	 -0.05095	  1.29412	706.11603	 24.40	
 20.392	 87.560	  1.05319	  0.52052	  0.47316	  1.25253	 -0.14886	 -0.05094	  1.29534	706.19397	 24.40	
 20.392	 92.440	  1.05252	  0.45771	  0.53273	  1.25353	 -0.15073	 -0.05055	  1.29571	706.20599	 24.40	
 20.403	 97.332	  1.05324	  0.39679	  0.59413	  1.24845	 -0.14688	 -0.05061	  1.29589	706.19000	 24.40	
 20.394	102.132	  1.05280	  0.33786	  0.65456	  1.23848	 -0.13947	 -0.04778	  1.29537	706.07300	 24.40	
 20.398	107.004	  1.05389	  0.28026	  0.71686	  1.22177	 -0.12756	 -0.04606	  1.29621	705.98602	 24.40	
 20.413	111.900	  1.05187	  0.22490	  0.77541	  1.19904	 -0.11373	 -0.05117	  1.29502	706.13898	 24.40	
 20.403	116.741	  1.05249	  0.17393	  0.83501	  1.17257	 -0.09471	 -0.05320	  1.29606	706.17297	 24.40	
 20.400	121.604	  1.05185	  0.12306	  0.89244	  1.13872	 -0.07276	 -0.05458	  1.29554	705.99500	 24.40	
 20.410	126.511	  1.05242	  0.07732	  0.94853	  1.10021	 -0.04559	 -0.05521	  1.29620	706.07898	 24.40	
 20.408	131.372	  1.05429	  0.03389	  1.00295	  1.05771	 -0.01508	 -0.05622	  1.29890	706.05603	 24.40	
 20.396	136.227	  1.05248	 -0.00318	  1.04819	  1.00726	  0.02074	 -0.05587	  1.29478	706.06897	 24.40	
 20.392	141.062	  1.05269	 -0.03800	  1.09292	  0.95562	  0.05850	 -0.05601	  1.29521	706.07703	 24.40	
 20.397	145.903	  1.05058	 -0.07102	  1.13237	  0.89858	  0.09735	 -0.05434	  1.29481	706.15198	 24.40	
 20.405	150.835	  1.04866	 -0.09949	  1.16724	  0.83853	  0.14306	 -0.05292	  1.29379	705.95001	 24.40	
 20.401	155.705	  1.04820	 -0.12256	  1.19762	  0.77711	  0.19280	 -0.05386	  1.29499	705.89600	 24.40	
 20.392	160.496	  1.04834	 -0.14113	  1.22234	  0.71731	  0.24343	 -0.05449	  1.29661	706.06799	 24.40	
 20.410	165.423	  1.04260	 -0.15915	  1.23869	  0.64922	  0.29750	 -0.05584	  1.29365	706.06897	 24.40	
 20.407	170.264	  1.04334	 -0.17088	  1.25568	  0.58576	  0.35599	 -0.05820	  1.29815	706.14099	 24.40	
 20.401	175.153	  1.03462	 -0.17804	  1.25629	  0.51896	  0.41314	 -0.05851	  1.29115	706.15900	 24.40	
  0.141	 45.000	  1.30564	  0.70194	  0.72183	  0.70218	  0.71435	  0.00675	  1.29658	706.10797	 24.40	
  4.001	128.691	  1.30135	  0.59564	  0.80633	  0.79158	  0.60056	  0.00221	  1.29489	706.14697	 24.40	
  4.002	 76.995	  1.30645	  0.72062	  0.68578	  0.82421	  0.57836	  0.00241	  1.29874	706.04797	 24.40	
  4.002	 25.892	  1.30089	  0.82199	  0.58689	  0.73526	  0.65010	  0.00127	  1.29533	706.16302	 24.40	
  4.002	-25.892	  1.29696	  0.81807	  0.57967	  0.60526	  0.77840	 -0.00040	  1.29364	706.07898	 24.40	
  4.002	-76.995	  1.29881	  0.71257	  0.67037	  0.53030	  0.86424	 -0.00173	  1.29593	706.14203	 24.40	
  4.001	-128.691	  1.29951	  0.58599	  0.80159	  0.55902	  0.83085	  0.00024	  1.29745	706.13202	 24.40	
  4.000	180.000	  1.29900	  0.53889	  0.86165	  0.67048	  0.70934	  0.00140	  1.29409	706.13599	 24.40	
  8.000	180.000	  1.27693	  0.36246	  0.99930	  0.64512	  0.67975	 -0.01562	  1.29904	706.19702	 24.40	
  7.991	-152.370	  1.27172	  0.38808	  0.95730	  0.50273	  0.82469	 -0.01453	  1.29677	706.20001	 24.40	
  7.997	-124.550	  1.26516	  0.47286	  0.84912	  0.39627	  0.94025	 -0.01766	  1.29241	706.24902	 24.40	
  8.006	-96.837	  1.26730	  0.60553	  0.70793	  0.35111	  1.00011	 -0.02015	  1.29618	706.30402	 24.40	
  7.988	-69.228	  1.26577	  0.75256	  0.56440	  0.36604	  0.98078	 -0.01918	  1.29176	706.09302	 24.40	
  7.997	-41.563	  1.27121	  0.88609	  0.45676	  0.44209	  0.89827	 -0.01983	  1.29628	706.05200	 24.40	
  8.008	-13.821	  1.27538	  0.96442	  0.40256	  0.56664	  0.76539	 -0.01585	  1.29800	706.19800	 24.40	
  8.008	 13.821	  1.27819	  0.97024	  0.40758	  0.71455	  0.61786	 -0.01433	  1.29698	706.20001	 24.40	
  7.997	 41.563	  1.27741	  0.89696	  0.47180	  0.85009	  0.49205	 -0.01405	  1.29148	706.10498	 24.40	
  7.988	 69.228	  1.28103	  0.77317	  0.58517	  0.94282	  0.41575	 -0.01293	  1.29481	706.02100	 24.40	
  8.006	 96.837	  1.28263	  0.62477	  0.72775	  0.96607	  0.39815	 -0.01465	  1.29595	706.01801	 24.40	
  7.997	124.550	  1.28200	  0.49297	  0.86386	  0.91091	  0.44277	 -0.01517	  1.29792	706.15802	 24.40	
  7.991	152.370	  1.27697	  0.39831	  0.96226	  0.79082	  0.54033	 -0.01436	  1.29470	706.17499	 24.40	
 12.009	161.059	  1.22567	  0.20570	  1.08394	  0.75179	  0.48415	 -0.03721	  1.29414	706.11798	 24.40	
 12.013	142.081	  1.23259	  0.27160	  1.01492	  0.89778	  0.36175	 -0.03723	  1.29827	706.03101	 24.40	
 12.006	123.113	  1.23315	  0.37526	  0.90021	  1.00667	  0.27377	 -0.03884	  1.29597	706.13599	 24.40	
 12.007	104.200	  1.23322	  0.50888	  0.75769	  1.07186	  0.22339	 -0.03761	  1.29562	706.10999	 24.40	
 11.989	 85.301	  1.23856	  0.66151	  0.61306	  1.08712	  0.21774	 -0.03900	  1.29934	706.04797	 24.40	
 12.013	 66.294	  1.23313	  0.81044	  0.47035	  1.04291	  0.24759	 -0.03556	  1.29515	706.10498	 24.40	
 12.012	 47.388	  1.23310	  0.94554	  0.35403	  0.95045	  0.32308	 -0.03611	  1.29667	706.02600	 24.40	
 11.990	 28.440	  1.23035	  1.04061	  0.27199	  0.81991	  0.43384	 -0.03464	  1.29559	706.09601	 24.40	
 11.991	  9.464	  1.22342	  1.08696	  0.22458	  0.66923	  0.56816	 -0.03620	  1.29348	706.14398	 24.40	
 11.991	 -9.464	  1.22370	  1.08632	  0.21844	  0.51721	  0.72229	 -0.03684	  1.29812	706.16699	 24.40	
 11.990	-28.440	  1.22059	  1.02796	  0.25524	  0.37818	  0.87248	 -0.03705	  1.29893	706.08002	 24.40	
 12.012	-47.388	  1.21481	  0.92163	  0.32912	  0.26876	  0.99373	 -0.04184	  1.29672	706.07300	 24.40	
 12.013	-66.294	  1.21337	  0.78271	  0.44322	  0.19570	  1.08144	 -0.04322	  1.29741	706.15002	 24.40	
 11.989	-85.301	  1.21074	  0.62888	  0.58364	  0.16481	  1.11605	 -0.04488	  1.29668	706.09302	 24.40	
 12.007	-104.200	  1.21313	  0.48106	  0.73728	  0.17676	  1.10196	 -0.04409	  1.30047	706.15900	 24.40	
 12.006	-123.113	  1.20940	  0.35098	  0.87839	  0.23020	  1.03165	 -0.03966	  1.29537	706.23700	 24.40	
 12.013	-142.081	  1.21172	  0.25431	  0.99977	  0.32447	  0.91988	 -0.03807	  1.29555	706.13202	 24.40	
 12.009	-161.059	  1.21902	  0.19608	  1.08220	  0.45055	  0.78221	 -0.03785	  1.29895	706.09698	 24.40	
 16.000	180.000	  1.14835	  0.01396	  1.19815	  0.54543	  0.56923	 -0.06091	  1.29761	706.11603	 24.40	
 15.990	-165.604	  1.13877	  0.02654	  1.17243	  0.39759	  0.71728	 -0.06180	  1.29408	706.16699	 24.40	
 16.002	-151.165	  1.13505	  0.06661	  1.11390	  0.26731	  0.86318	 -0.06079	  1.29628	706.15802	 24.40	
 16.002	-136.836	  1.13453	  0.14275	  1.01944	  0.16460	  0.99638	 -0.06066	  1.29897	706.12097	 24.40	
 15.995	-122.439	  1.13376	  0.23917	  0.89508	  0.08467	  1.09959	 -0.05907	  1.29899	706.28400	 24.40	
 15.993	-107.966	  1.13448	  0.36025	  0.75386	  0.03040	  1.17229	 -0.06019	  1.30107	706.10101	 24.40	
 16.005	-93.629	  1.13107	  0.49677	  0.59983	  0.00306	  1.20156	 -0.05650	  1.29748	706.21802	 24.40	
 15.992	-79.234	  1.12964	  0.64300	  0.45272	  0.00672	  1.19366	 -0.05066	  1.29595	706.10999	 24.40	
 16.009	-64.774	  1.12995	  0.79263	  0.32090	  0.04225	  1.14668	 -0.04932	  1.29391	706.20599	 24.40	
 15.997	-50.364	  1.13354	  0.93166	  0.21195	  0.11201	  1.06257	 -0.05151	  1.29301	706.12097	 24.40	
 15.997	-36.045	  1.13791	  1.04782	  0.12723	  0.20136	  0.95147	 -0.04840	  1.29491	706.15802	 24.40	
 16.000	-21.597	  1.14148	  1.13189	  0.07288	  0.31999	  0.81400	 -0.04565	  1.29468	706.06000	 24.40	
 16.003	 -7.169	  1.14693	  1.17918	  0.04606	  0.45916	  0.66373	 -0.04577	  1.29752	706.27600	 24.40	
 16.003	  7.169	  1.14890	  1.18197	  0.05394	  0.60889	  0.51493	 -0.04789	  1.29420	706.10101	 24.40	
 16.000	 21.597	  1.15391	  1.14869	  0.08673	  0.76076	  0.37495	 -0.04649	  1.29544	706.10101	 24.40	
 15.997	 36.045	  1.15408	  1.07115	  0.14700	  0.90142	  0.25181	 -0.05111	  1.29311	706.13599	 24.40	
 15.997	 50.364	  1.15909	  0.96534	  0.23546	  1.02426	  0.15649	 -0.05343	  1.29597	706.19702	 24.40	
 16.009	 64.774	  1.16104	  0.83167	  0.34808	  1.11747	  0.08661	 -0.05261	  1.29693	706.22900	 24.50	
 15.992	 79.234	  1.16164	  0.68040	  0.47843	  1.16957	  0.04389	 -0.05721	  1.29649	706.11902	 24.50	
 16.005	 93.629	  1.16163	  0.52954	  0.62346	  1.18094	  0.03706	 -0.05781	  1.29639	706.07098	 24.50	
 15.993	107.966	  1.16141	  0.38455	  0.77087	  1.15149	  0.05822	 -0.05523	  1.29726	706.19501	 24.50	
 15.995	122.439	  1.16076	  0.25920	  0.90993	  1.08206	  0.11013	 -0.05899	  1.29622	706.19397	 24.50	
 16.002	136.836	  1.16006	  0.15446	  1.03139	  0.97745	  0.18913	 -0.05910	  1.29725	706.07300	 24.50	
 16.002	151.165	  1.15737	  0.07807	  1.12294	  0.84468	  0.29574	 -0.05649	  1.29512	706.10199	 24.50	
 15.990	165.604	  1.15310	  0.03204	  1.17858	  0.69548	  0.42581	 -0.05902	  1.29543	706.15503	 24.50	
 20.003	168.362	  1.05444	 -0.14632	  1.24559	  0.61703	  0.34752	 -0.05894	  1.29716	706.11102	 24.50	
 20.008	156.764	  1.06041	 -0.10950	  1.20192	  0.76937	  0.21783	 -0.05571	  1.29762	706.14899	 24.50	
 20.000	145.147	  1.06123	 -0.04818	  1.12452	  0.90731	  0.10883	 -0.05510	  1.29449	706.04498	 24.50	
 19.995	133.545	  1.06313	  0.03403	  1.02288	  1.03111	  0.02025	 -0.05659	  1.29536	706.13599	 24.50	
 20.009	121.926	  1.06267	  0.13426	  0.89965	  1.13242	 -0.05251	 -0.05627	  1.29546	706.14398	 24.40	
 20.005	110.327	  1.06395	  0.25461	  0.76304	  1.20335	 -0.10000	 -0.05136	  1.29728	706.13501	 24.50	
 19.989	 98.733	  1.06856	  0.39149	  0.62270	  1.24385	 -0.12342	 -0.05082	  1.29973	706.09601	 24.50	
 19.999	 87.075	  1.06611	  0.53684	  0.47834	  1.24783	 -0.12817	 -0.05301	  1.29753	706.11603	 24.50	
 19.992	 75.457	  1.06488	  0.68499	  0.34285	  1.22101	 -0.10831	 -0.05141	  1.29562	706.19397	 24.50	
 20.009	 63.844	  1.06602	  0.83124	  0.22009	  1.16800	 -0.07006	 -0.05037	  1.29885	706.16699	 24.40	
 19.989	 52.269	  1.06306	  0.96373	  0.11461	  1.07847	 -0.00660	 -0.04873	  1.29647	706.13202	 24.40	
 19.999	 40.602	  1.06150	  1.07849	  0.02678	  0.96476	  0.07812	 -0.04918	  1.29743	706.03400	 24.40	
 20.004	 29.051	  1.05870	  1.16695	 -0.04116	  0.83066	  0.18262	 -0.04204	  1.29712	706.17798	 24.40	
 20.005	 17.433	  1.05243	  1.22201	 -0.08919	  0.68197	  0.30445	 -0.03656	  1.29380	705.95203	 24.40	
 20.006	  5.780	  1.04879	  1.24792	 -0.11664	  0.53377	  0.44081	 -0.03818	  1.29424	706.19000	 24.50	
 20.006	 -5.780	  1.04749	  1.24781	 -0.12614	  0.38690	  0.58632	 -0.03588	  1.29790	706.02100	 24.40	
 20.005	-17.433	  1.04009	  1.20736	 -0.10969	  0.24576	  0.73362	 -0.03620	  1.29411	706.11298	 24.40	
 20.004	-29.051	  1.03803	  1.14045	 -0.07296	  0.12168	  0.87807	 -0.04088	  1.29658	706.10400	 24.40	
 19.999	-40.602	  1.03333	  1.04193	 -0.01184	  0.02045	  1.00204	 -0.04222	  1.29354	706.09399	 24.40	
 19.989	-52.269	  1.02846	  0.91814	  0.07286	 -0.06530	  1.11036	 -0.04071	  1.29189	706.16998	 24.40	
 20.009	-63.844	  1.02602	  0.78067	  0.17575	 -0.12593	  1.19042	 -0.03939	  1.29368	706.14203	 24.40	
 19.992	-75.457	  1.02199	  0.63051	  0.30137	 -0.16406	  1.23726	 -0.03879	  1.29035	706.20300	 24.40	
 19.999	-87.075	  1.02326	  0.48282	  0.43977	 -0.18120	  1.26134	 -0.04167	  1.29505	706.26501	 24.40	
 19.989	-98.733	  1.02114	  0.33716	  0.58844	 -0.17682	  1.25101	 -0.04756	  1.29495	706.22601	 24.40	
 20.005	-110.327	  1.02460	  0.20782	  0.73904	 -0.14681	  1.21360	 -0.05422	  1.29883	706.13202	 24.40	
 20.009	-121.926	  1.02295	  0.09207	  0.88054	 -0.09651	  1.14157	 -0.05653	  1.29781	706.15198	 24.40	
 19.995	-133.545	  1.02341	 -0.00286	  1.00833	 -0.02149	  1.03890	 -0.05923	  1.29541	706.15802	 24.40	
 20.000	-145.147	  1.02790	 -0.07567	  1.11545	  0.07449	  0.91771	 -0.06024	  1.29658	706.14099	 24.40	
 20.008	-156.764	  1.03179	 -0.12807	  1.19363	  0.18942	  0.77806	 -0.05723	  1.29524	706.18298	 24.40	
 20.003	-168.362	  1.03782	 -0.15515	  1.24014	  0.32200	  0.63146	 -0.05792	  1.29456	706.16400	 24.40	
 20.000	180.000	  1.04798	 -0.16123	  1.25894	  0.46749	  0.48666	 -0.05674	  1.29731	706.10101	 24.40	
