FileType=PCF
NHL=14
Date=08/29/17	16:36:01
Facility=APL
Serial=16328-16
Customer=NASA
NP=6
Mach=0.050000
Calibration=1:1
CalPts=490
TstPts=95
PortNumbering=AP Standard
Units=Torr C m/s kg/m^3 deg mm 
Theta[deg]	Phi[deg]	P1[Torr]	P2[Torr]	P3[Torr]	P4[Torr]	P5[Torr]	P6[Torr]	Pt[Torr]	Ps[Abs,Torr]	Ts[C]	
  0.000	  0.000	  1.27560	  0.70086	  0.68947	  0.69610	  0.71426	  0.00591	  1.26714	705.09698	 24.80	
  1.691	128.401	  1.28005	  0.66936	  0.72267	  0.73012	  0.68077	  0.00634	  1.27156	705.00800	 24.80	
  1.692	 77.194	  1.28085	  0.71297	  0.67879	  0.74268	  0.66841	  0.00601	  1.27220	705.09100	 24.80	
  1.699	 26.182	  1.27560	  0.75030	  0.63803	  0.70802	  0.69057	  0.00551	  1.26755	705.06403	 24.80	
  1.699	-26.182	  1.28128	  0.75299	  0.63985	  0.66008	  0.74578	  0.00431	  1.27388	705.11401	 24.80	
  1.692	-77.194	  1.28364	  0.71373	  0.67479	  0.63490	  0.77863	  0.00407	  1.27540	705.14301	 24.80	
  1.691	-128.401	  1.27345	  0.66044	  0.71951	  0.63990	  0.76186	  0.00491	  1.26544	705.05200	 24.80	
  1.700	180.000	  1.27552	  0.64478	  0.74398	  0.68379	  0.71580	  0.00579	  1.26703	705.10797	 24.80	
  3.400	180.000	  1.27465	  0.57993	  0.80691	  0.67781	  0.71315	  0.00314	  1.26851	705.18402	 24.80	
  3.388	-152.325	  1.27754	  0.59178	  0.79327	  0.62503	  0.77182	  0.00175	  1.27144	705.02899	 24.70	
  3.397	-124.529	  1.27710	  0.62507	  0.75117	  0.58376	  0.81688	  0.00075	  1.27202	705.01599	 24.70	
  3.399	-96.763	  1.27633	  0.67644	  0.69409	  0.56457	  0.83755	 -0.00004	  1.27193	705.01202	 24.70	
  3.394	-69.283	  1.27847	  0.73629	  0.63885	  0.57246	  0.83069	  0.00038	  1.27404	705.09497	 24.70	
  3.400	-41.398	  1.27835	  0.78704	  0.59416	  0.60222	  0.79501	  0.00048	  1.27281	705.09698	 24.70	
  3.401	-14.021	  1.27594	  0.81496	  0.56936	  0.64838	  0.74173	  0.00084	  1.27049	705.05798	 24.70	
  3.401	 14.021	  1.27665	  0.81669	  0.56935	  0.70720	  0.68343	  0.00214	  1.27031	704.91699	 24.70	
  3.400	 41.398	  1.27492	  0.78752	  0.59467	  0.75964	  0.63432	  0.00284	  1.26879	704.95599	 24.70	
  3.394	 69.283	  1.27800	  0.73933	  0.64066	  0.79573	  0.60780	  0.00448	  1.27017	705.01599	 24.70	
  3.399	 96.763	  1.27674	  0.68236	  0.69631	  0.80257	  0.60349	  0.00435	  1.26973	704.95001	 24.70	
  3.397	124.529	  1.27299	  0.62907	  0.75025	  0.77907	  0.61921	  0.00340	  1.26697	705.01599	 24.70	
  3.388	152.325	  1.27558	  0.59550	  0.79192	  0.73603	  0.65862	  0.00262	  1.26952	704.96802	 24.70	
  5.099	161.165	  1.26864	  0.52190	  0.85464	  0.73051	  0.64627	 -0.00162	  1.26764	704.96802	 24.70	
  5.109	142.013	  1.26831	  0.54930	  0.82348	  0.78583	  0.59601	 -0.00153	  1.26659	705.02600	 24.70	
  5.095	123.033	  1.27435	  0.59354	  0.77852	  0.83179	  0.56300	 -0.00137	  1.27195	705.06299	 24.70	
  5.105	104.191	  1.27550	  0.64678	  0.72212	  0.85976	  0.54087	 -0.00096	  1.27349	704.99799	 24.70	
  5.093	 85.207	  1.26619	  0.70182	  0.65592	  0.85830	  0.53202	 -0.00089	  1.26336	705.05701	 24.70	
  5.104	 66.290	  1.27304	  0.76583	  0.60192	  0.84682	  0.54657	 -0.00152	  1.27106	705.26801	 24.70	
  5.094	 47.331	  1.27445	  0.82007	  0.55427	  0.81157	  0.57614	 -0.00122	  1.27329	704.98700	 24.70	
  5.089	 28.397	  1.27098	  0.85661	  0.51783	  0.75954	  0.61741	 -0.00241	  1.26970	705.00201	 24.80	
  5.096	  9.576	  1.27272	  0.87752	  0.50053	  0.70032	  0.67348	 -0.00387	  1.27236	704.91803	 24.80	
  5.096	 -9.576	  1.27038	  0.87498	  0.49946	  0.63771	  0.73426	 -0.00525	  1.27022	704.98102	 24.70	
  5.089	-28.397	  1.26708	  0.85090	  0.51651	  0.58238	  0.79036	 -0.00584	  1.26875	705.10602	 24.80	
  5.094	-47.331	  1.26743	  0.81024	  0.54948	  0.53782	  0.84159	 -0.00661	  1.26916	705.14203	 24.80	
  5.104	-66.290	  1.26858	  0.75671	  0.59786	  0.50716	  0.87863	 -0.00620	  1.27128	705.06598	 24.80	
  5.093	-85.207	  1.26521	  0.69435	  0.65373	  0.49256	  0.89321	 -0.00636	  1.26735	704.98700	 24.80	
  5.105	-104.191	  1.27213	  0.63694	  0.71916	  0.49893	  0.89415	 -0.00585	  1.27462	705.03497	 24.80	
  5.095	-123.033	  1.26681	  0.58219	  0.77444	  0.51971	  0.86396	 -0.00437	  1.26920	705.01801	 24.80	
  5.109	-142.013	  1.26683	  0.54186	  0.82261	  0.55830	  0.82064	 -0.00350	  1.26757	705.15399	 24.80	
  5.099	-161.165	  1.27036	  0.51833	  0.85657	  0.61170	  0.76635	 -0.00179	  1.27051	705.15698	 24.80	
  5.100	180.000	  1.26937	  0.51093	  0.86648	  0.66958	  0.70525	 -0.00180	  1.26834	705.12000	 24.80	
  6.800	180.000	  1.25947	  0.43959	  0.92300	  0.65753	  0.69430	 -0.00886	  1.26818	705.14697	 24.70	
  6.796	-166.229	  1.26008	  0.44481	  0.91585	  0.59975	  0.75393	 -0.00890	  1.27054	705.21301	 24.70	
  6.808	-152.311	  1.25787	  0.46053	  0.89135	  0.54462	  0.81065	 -0.00801	  1.26944	705.09399	 24.70	
  6.795	-138.383	  1.25958	  0.49182	  0.85500	  0.49840	  0.86488	 -0.00951	  1.27120	705.13702	 24.70	
  6.792	-124.591	  1.26003	  0.53269	  0.80732	  0.46194	  0.90719	 -0.01174	  1.27296	705.18103	 24.70	
  6.787	-110.754	  1.25800	  0.58176	  0.74925	  0.43692	  0.93468	 -0.01250	  1.27021	705.12000	 24.70	
  6.800	-96.985	  1.25477	  0.63609	  0.68811	  0.42260	  0.94784	 -0.01358	  1.26867	705.21802	 24.70	
  6.800	-83.015	  1.25717	  0.69784	  0.62860	  0.42347	  0.94912	 -0.01569	  1.27123	705.16699	 24.80	
  6.787	-69.246	  1.26107	  0.76025	  0.57376	  0.43783	  0.93594	 -0.01375	  1.27523	705.07001	 24.80	
  6.792	-55.409	  1.25887	  0.81452	  0.52205	  0.46138	  0.90406	 -0.01394	  1.27307	705.08600	 24.80	
  6.795	-41.617	  1.25655	  0.86129	  0.48057	  0.49702	  0.85865	 -0.01412	  1.26933	705.06299	 24.80	
  6.808	-27.689	  1.25865	  0.90121	  0.44935	  0.54371	  0.80747	 -0.01328	  1.27155	705.25201	 24.80	
  6.796	-13.771	  1.25917	  0.92561	  0.43184	  0.59769	  0.74965	 -0.01217	  1.27050	705.16998	 24.80	
  6.800	  0.000	  1.26051	  0.93517	  0.42553	  0.65610	  0.69060	 -0.01103	  1.27195	705.29498	 24.80	
  6.796	 13.771	  1.25928	  0.92759	  0.43191	  0.71595	  0.63171	 -0.01054	  1.26964	705.21198	 24.80	
  6.808	 27.689	  1.25918	  0.90546	  0.44990	  0.77435	  0.57798	 -0.00903	  1.26784	705.15399	 24.80	
  6.795	 41.617	  1.26398	  0.87235	  0.48478	  0.82974	  0.53585	 -0.00734	  1.27229	705.23798	 24.80	
  6.792	 55.409	  1.26594	  0.82688	  0.52755	  0.87401	  0.50112	 -0.00783	  1.27325	705.15698	 24.70	
  6.787	 69.246	  1.26671	  0.77179	  0.57834	  0.90516	  0.47772	 -0.00726	  1.27409	705.18201	 24.80	
  6.800	 83.015	  1.26501	  0.71154	  0.63403	  0.91978	  0.46502	 -0.00734	  1.27145	705.15698	 24.80	
  6.800	 96.985	  1.26690	  0.65158	  0.69600	  0.92156	  0.46637	 -0.00731	  1.27404	705.13397	 24.80	
  6.787	110.754	  1.26378	  0.59348	  0.75287	  0.90274	  0.47880	 -0.00740	  1.27112	705.12903	 24.80	
  6.792	124.591	  1.26486	  0.54435	  0.80995	  0.87383	  0.50434	 -0.00739	  1.27207	705.01599	 24.80	
  6.795	138.383	  1.26240	  0.50143	  0.85672	  0.82947	  0.53937	 -0.00795	  1.26922	705.09698	 24.80	
  6.808	152.311	  1.26395	  0.46993	  0.89492	  0.77918	  0.58420	 -0.00769	  1.27162	705.12000	 24.80	
  6.796	166.229	  1.25951	  0.44824	  0.91510	  0.71822	  0.63556	 -0.00775	  1.26931	705.17603	 24.80	
  8.491	168.704	  1.24767	  0.37638	  0.97062	  0.70692	  0.62045	 -0.01518	  1.27075	705.23199	 24.80	
  8.502	157.493	  1.24797	  0.39273	  0.95189	  0.76682	  0.56525	 -0.01589	  1.27009	705.15900	 24.80	
  8.494	146.194	  1.24934	  0.42026	  0.92112	  0.82422	  0.51615	 -0.01646	  1.27078	705.13702	 24.80	
  8.495	135.039	  1.25067	  0.45514	  0.88050	  0.87581	  0.47330	 -0.01617	  1.27222	705.22900	 24.80	
  8.487	123.723	  1.24946	  0.49918	  0.82848	  0.91737	  0.43806	 -0.01530	  1.27047	705.27100	 24.80	
  8.492	112.575	  1.24970	  0.54931	  0.77217	  0.94827	  0.41286	 -0.01572	  1.27100	705.17401	 24.80	
  8.510	101.220	  1.24768	  0.60448	  0.70924	  0.96651	  0.39591	 -0.01675	  1.26816	705.09698	 24.80	
  8.500	 90.000	  1.24916	  0.66616	  0.64833	  0.97384	  0.39110	 -0.01496	  1.27031	705.12799	 24.70	
  8.510	 78.780	  1.24962	  0.72821	  0.58773	  0.96786	  0.39503	 -0.01373	  1.27028	705.28497	 24.70	
  8.492	 67.425	  1.24981	  0.78890	  0.53081	  0.94893	  0.40964	 -0.01496	  1.27163	705.20898	 24.80	
  8.487	 56.277	  1.24860	  0.84434	  0.48054	  0.91612	  0.43376	 -0.01573	  1.27197	705.24701	 24.80	
  8.495	 44.961	  1.24136	  0.88957	  0.43300	  0.86859	  0.46424	 -0.01573	  1.26412	705.26898	 24.80	
  8.494	 33.806	  1.24875	  0.93604	  0.40095	  0.82328	  0.51024	 -0.01607	  1.27349	705.22101	 24.70	
  8.502	 22.507	  1.24956	  0.96733	  0.37515	  0.76649	  0.56052	 -0.01748	  1.27403	705.20697	 24.80	
  8.491	 11.296	  1.24768	  0.98367	  0.35870	  0.70424	  0.61558	 -0.02093	  1.27273	705.15997	 24.80	
  8.500	  0.000	  1.24641	  0.98916	  0.35218	  0.64116	  0.67469	 -0.02058	  1.27309	705.26898	 24.80	
  8.491	-11.296	  1.24464	  0.97982	  0.35705	  0.58051	  0.73522	 -0.02062	  1.27095	705.12598	 24.80	
  8.502	-22.507	  1.24178	  0.95804	  0.37151	  0.52303	  0.79375	 -0.02148	  1.26898	705.21503	 24.80	
  8.494	-33.806	  1.23835	  0.92239	  0.39579	  0.47066	  0.84944	 -0.02271	  1.26824	705.15698	 24.80	
  8.495	-44.961	  1.23885	  0.88101	  0.42986	  0.42770	  0.90024	 -0.02393	  1.26863	705.22302	 24.80	
  8.487	-56.277	  1.24123	  0.83053	  0.47540	  0.39495	  0.94345	 -0.02301	  1.27097	705.22400	 24.80	
  8.492	-67.425	  1.23590	  0.77056	  0.52316	  0.36852	  0.97086	 -0.02394	  1.26584	705.27802	 24.70	
  8.510	-78.780	  1.24058	  0.71197	  0.58302	  0.35374	  0.99551	 -0.02453	  1.27114	705.38702	 24.70	
  8.500	-90.000	  1.24046	  0.65003	  0.64289	  0.34877	  1.00205	 -0.02330	  1.27033	705.26099	 24.70	
  8.510	-101.220	  1.23758	  0.58843	  0.70335	  0.35236	  0.99403	 -0.02225	  1.26755	705.31598	 24.70	
  8.492	-112.575	  1.24068	  0.53431	  0.76647	  0.37050	  0.97694	 -0.02061	  1.27002	705.29498	 24.70	
  8.487	-123.723	  1.24101	  0.48435	  0.82346	  0.39569	  0.94689	 -0.01927	  1.26990	705.31897	 24.70	
  8.495	-135.039	  1.24292	  0.44243	  0.87601	  0.43027	  0.90737	 -0.01777	  1.27041	705.39600	 24.70	
  8.494	-146.194	  1.23608	  0.40730	  0.91263	  0.47139	  0.85301	 -0.01628	  1.26376	705.25403	 24.70	
  8.502	-157.493	  1.24529	  0.38565	  0.95097	  0.52649	  0.80134	 -0.01641	  1.27252	705.28497	 24.70	
  8.491	-168.704	  1.24676	  0.37267	  0.97039	  0.58242	  0.74198	 -0.01696	  1.27141	705.27100	 24.70	
  8.500	180.000	  1.24841	  0.36936	  0.97851	  0.64369	  0.68220	 -0.01609	  1.27187	705.31403	 24.70	
 10.200	180.000	  1.22753	  0.29472	  1.02722	  0.62478	  0.66314	 -0.02553	  1.27173	705.24597	 24.70	
 10.191	-170.497	  1.22732	  0.29799	  1.02131	  0.56380	  0.72492	 -0.02602	  1.27216	705.29901	 24.70	
 10.210	-161.034	  1.22446	  0.30833	  1.00338	  0.50493	  0.78469	 -0.02567	  1.27094	705.26801	 24.70	
 10.194	-151.526	  1.21868	  0.32808	  0.97115	  0.44951	  0.84039	 -0.02492	  1.26503	705.31598	 24.70	
 10.190	-142.105	  1.21502	  0.35414	  0.93211	  0.40102	  0.89285	 -0.02564	  1.26288	705.22998	 24.70	
 10.215	-132.646	  1.21985	  0.39100	  0.89163	  0.36161	  0.94431	 -0.02756	  1.27012	705.29199	 24.70	
 10.203	-123.092	  1.21602	  0.43320	  0.83560	  0.32718	  0.98237	 -0.02901	  1.26720	705.35101	 24.70	
 10.192	-113.678	  1.21454	  0.48237	  0.77680	  0.30074	  1.01240	 -0.02988	  1.26499	705.31403	 24.70	
 10.208	-104.249	  1.21942	  0.53899	  0.71884	  0.28455	  1.03810	 -0.03119	  1.27144	705.34399	 24.70	
 10.210	-94.801	  1.21723	  0.59711	  0.65471	  0.27431	  1.04759	 -0.03368	  1.26987	705.26398	 24.70	
 10.210	-85.199	  1.22007	  0.66196	  0.59181	  0.27393	  1.04923	 -0.03482	  1.27252	705.34003	 24.70	
 10.208	-75.751	  1.21666	  0.72190	  0.53099	  0.28275	  1.03447	 -0.03503	  1.26829	705.28601	 24.70	
 10.192	-66.322	  1.21862	  0.78427	  0.47675	  0.30088	  1.01303	 -0.03448	  1.27034	705.34198	 24.70	
 10.203	-56.908	  1.21766	  0.84186	  0.42506	  0.32565	  0.97992	 -0.03368	  1.26927	705.38702	 24.70	
 10.215	-47.354	  1.22055	  0.89751	  0.38124	  0.36014	  0.93978	 -0.03437	  1.27087	705.34399	 24.70	
 10.190	-37.895	  1.21995	  0.94233	  0.34423	  0.39999	  0.89072	 -0.03341	  1.27045	705.31598	 24.70	
 10.194	-28.474	  1.22495	  0.98409	  0.31611	  0.44919	  0.83903	 -0.03188	  1.27407	705.27802	 24.70	
 10.210	-18.966	  1.21833	  1.00708	  0.29344	  0.50077	  0.77423	 -0.02918	  1.26709	705.30603	 24.70	
 10.191	 -9.503	  1.22073	  1.02595	  0.28156	  0.55929	  0.71357	 -0.02993	  1.26820	705.34802	 24.70	
 10.200	  0.000	  1.22765	  1.03826	  0.27824	  0.62346	  0.65505	 -0.03026	  1.27308	705.23999	 24.70	
 10.191	  9.503	  1.22558	  1.03162	  0.28288	  0.68487	  0.59341	 -0.03048	  1.27114	705.20898	 24.70	
 10.210	 18.966	  1.22931	  1.01962	  0.29755	  0.74891	  0.53815	 -0.02798	  1.27312	705.26001	 24.70	
 10.194	 28.474	  1.22773	  0.99138	  0.31923	  0.80804	  0.48475	 -0.02551	  1.27106	705.21802	 24.70	
 10.190	 37.895	  1.22560	  0.95393	  0.34828	  0.86138	  0.43766	 -0.02372	  1.26838	705.32300	 24.70	
 10.215	 47.354	  1.22674	  0.91140	  0.38569	  0.91279	  0.39761	 -0.02414	  1.26967	705.28003	 24.70	
 10.203	 56.908	  1.23112	  0.86161	  0.43212	  0.95672	  0.36666	 -0.02422	  1.27258	705.30902	 24.70	
 10.192	 66.322	  1.22993	  0.80297	  0.48302	  0.98698	  0.34339	 -0.02337	  1.27086	705.31403	 24.70	
 10.208	 75.751	  1.22985	  0.74271	  0.53864	  1.01010	  0.32630	 -0.02278	  1.27025	705.33698	 24.70	
 10.210	 85.199	  1.22932	  0.68025	  0.59789	  1.02123	  0.31770	 -0.02333	  1.26898	705.26801	 24.70	
 10.210	 94.801	  1.22802	  0.61591	  0.66175	  1.02043	  0.31867	 -0.02484	  1.26818	705.23602	 24.70	
 10.208	104.249	  1.23282	  0.55949	  0.72669	  1.01300	  0.32884	 -0.02490	  1.27248	705.33002	 24.70	
 10.192	113.678	  1.22810	  0.50183	  0.78478	  0.98613	  0.34633	 -0.02427	  1.26694	705.40100	 24.70	
 10.203	123.092	  1.23015	  0.45171	  0.84412	  0.95717	  0.37086	 -0.02519	  1.26997	705.33301	 24.70	
 10.215	132.646	  1.23180	  0.40616	  0.89787	  0.91716	  0.40372	 -0.02493	  1.27231	705.38501	 24.70	
 10.190	142.105	  1.23050	  0.36938	  0.94157	  0.86656	  0.44483	 -0.02492	  1.26975	705.38202	 24.70	
 10.194	151.526	  1.22587	  0.33768	  0.97538	  0.80795	  0.49043	 -0.02448	  1.26635	705.36200	 24.70	
 10.210	161.034	  1.22895	  0.31579	  1.00599	  0.75083	  0.54432	 -0.02401	  1.27090	705.45502	 24.70	
 10.191	170.497	  1.22142	  0.29980	  1.01665	  0.68501	  0.59832	 -0.02354	  1.26377	705.42902	 24.70	
 11.899	171.783	  1.20765	  0.22742	  1.07078	  0.66949	  0.58104	 -0.03436	  1.27448	705.34198	 24.70	
 11.890	163.610	  1.20929	  0.24023	  1.05748	  0.73280	  0.52365	 -0.03463	  1.27543	705.36401	 24.70	
 11.889	155.445	  1.20680	  0.25957	  1.03089	  0.79163	  0.46889	 -0.03329	  1.27149	705.40198	 24.70	
 11.909	147.299	  1.20906	  0.28537	  1.00082	  0.85247	  0.41875	 -0.03443	  1.27351	705.24902	 24.70	
 11.902	139.148	  1.21004	  0.31869	  0.95968	  0.90645	  0.37470	 -0.03464	  1.27409	705.41602	 24.70	
 11.894	130.867	  1.21128	  0.35969	  0.91206	  0.95544	  0.33727	 -0.03461	  1.27402	705.43201	 24.80	
 11.897	122.732	  1.20819	  0.40338	  0.85610	  0.99386	  0.30406	 -0.03421	  1.27083	705.35101	 24.70	
 11.903	114.597	  1.21145	  0.45403	  0.80073	  1.02979	  0.27907	 -0.03429	  1.27486	705.40900	 24.80	
 11.893	106.346	  1.20635	  0.50840	  0.73496	  1.04923	  0.25971	 -0.03476	  1.26949	705.41998	 24.70	
 11.892	 98.155	  1.20472	  0.56616	  0.67069	  1.06224	  0.24760	 -0.03488	  1.26792	705.31097	 24.70	
 11.900	 90.000	  1.21345	  0.63217	  0.61173	  1.07490	  0.24454	 -0.03450	  1.27730	705.39301	 24.70	
 11.892	 81.845	  1.20501	  0.69039	  0.54656	  1.06248	  0.24659	 -0.03300	  1.26850	705.39502	 24.70	
 11.893	 73.654	  1.20643	  0.75430	  0.48852	  1.04881	  0.25794	 -0.03209	  1.27052	705.32300	 24.70	
 11.903	 65.403	  1.20487	  0.81437	  0.43178	  1.02416	  0.27346	 -0.03270	  1.26955	705.37799	 24.70	
 11.897	 57.268	  1.20595	  0.87284	  0.38141	  0.99181	  0.29822	 -0.03387	  1.27190	705.30798	 24.70	
 11.894	 49.133	  1.20337	  0.92397	  0.33571	  0.94805	  0.32929	 -0.03424	  1.26968	705.39502	 24.70	
 11.902	 40.852	  1.19871	  0.96776	  0.29487	  0.89703	  0.36484	 -0.03371	  1.26620	705.18402	 24.70	
 11.909	 32.701	  1.20311	  1.01167	  0.26376	  0.84769	  0.40966	 -0.03368	  1.27135	705.44702	 24.70	
 11.889	 24.555	  1.20272	  1.04211	  0.23886	  0.78795	  0.46036	 -0.03492	  1.27170	705.34399	 24.70	
 11.890	 16.390	  1.20040	  1.06276	  0.22087	  0.72517	  0.51317	 -0.03789	  1.26824	705.32501	 24.70	
 11.899	  8.217	  1.20223	  1.07808	  0.20924	  0.66378	  0.57077	 -0.04009	  1.27230	705.31403	 24.70	
 11.900	  0.000	  1.20278	  1.08249	  0.20418	  0.59983	  0.63300	 -0.03889	  1.27346	705.33002	 24.70	
 11.899	 -8.217	  1.19841	  1.07305	  0.20705	  0.53731	  0.69295	 -0.03805	  1.27031	705.36200	 24.70	
 11.890	-16.390	  1.19963	  1.05891	  0.21905	  0.48056	  0.75605	 -0.03773	  1.27226	705.29999	 24.70	
 11.889	-24.555	  1.19247	  1.02757	  0.23540	  0.42225	  0.81263	 -0.03862	  1.26552	705.36401	 24.70	
 11.909	-32.701	  1.19263	  0.99548	  0.26035	  0.37196	  0.87139	 -0.04019	  1.26617	705.39600	 24.70	
 11.902	-40.852	  1.19622	  0.95677	  0.29332	  0.33057	  0.92668	 -0.04246	  1.27137	705.33698	 24.70	
 11.894	-49.133	  1.19312	  0.90548	  0.33126	  0.29008	  0.97315	 -0.04343	  1.26856	705.45502	 24.70	
 11.897	-57.268	  1.19451	  0.85254	  0.37584	  0.25806	  1.01493	 -0.04368	  1.27004	705.34399	 24.70	
 11.903	-65.403	  1.19384	  0.79411	  0.42596	  0.23249	  1.04850	 -0.04320	  1.27030	705.24597	 24.70	
 11.893	-73.654	  1.19331	  0.73167	  0.48125	  0.21564	  1.07126	 -0.04461	  1.27000	705.23602	 24.70	
 11.892	-81.845	  1.19421	  0.66949	  0.54091	  0.20579	  1.08713	 -0.04484	  1.27153	705.39001	 24.70	
 11.900	-90.000	  1.19263	  0.60552	  0.60164	  0.20044	  1.09185	 -0.04439	  1.27069	705.19299	 24.70	
 11.892	-98.155	  1.19173	  0.54448	  0.66411	  0.20419	  1.08710	 -0.04276	  1.27012	705.24402	 24.70	
 11.893	-106.346	  1.19293	  0.48676	  0.72784	  0.21557	  1.07420	 -0.04094	  1.26972	705.38800	 24.70	
 11.903	-114.597	  1.19931	  0.43392	  0.79366	  0.23449	  1.05745	 -0.04009	  1.27647	705.28802	 24.70	
 11.897	-122.732	  1.19559	  0.38357	  0.84931	  0.25893	  1.02179	 -0.03834	  1.27150	705.38202	 24.70	
 11.894	-130.867	  1.19426	  0.34033	  0.90176	  0.29179	  0.97972	 -0.03649	  1.26990	705.25403	 24.70	
 11.902	-139.148	  1.19651	  0.30339	  0.95205	  0.33166	  0.93365	 -0.03482	  1.27013	705.32202	 24.70	
 11.909	-147.299	  1.19850	  0.27195	  0.99402	  0.37576	  0.88240	 -0.03437	  1.27133	705.26898	 24.70	
 11.889	-155.445	  1.19814	  0.24934	  1.02535	  0.42656	  0.82397	 -0.03490	  1.26946	705.21198	 24.70	
 11.890	-163.610	  1.20436	  0.23421	  1.05442	  0.48402	  0.76620	 -0.03551	  1.27383	705.30798	 24.70	
 11.899	-171.783	  1.20074	  0.22419	  1.06478	  0.54101	  0.70194	 -0.03584	  1.26988	705.31403	 24.70	
 11.900	180.000	  1.20843	  0.22353	  1.07643	  0.60653	  0.64422	 -0.03520	  1.27725	705.18201	 24.70	
 13.600	180.000	  1.18207	  0.15136	  1.11975	  0.58280	  0.62084	 -0.04434	  1.27977	705.34698	 24.70	
 13.608	-172.853	  1.17943	  0.15141	  1.11405	  0.52103	  0.68078	 -0.04495	  1.27788	705.30603	 24.70	
 13.611	-165.583	  1.17971	  0.15912	  1.10264	  0.46135	  0.74455	 -0.04688	  1.28051	705.26300	 24.70	
 13.601	-158.353	  1.16948	  0.17259	  1.07177	  0.40106	  0.80063	 -0.04468	  1.26954	705.25201	 24.70	
 13.609	-151.210	  1.17221	  0.19345	  1.04506	  0.35146	  0.86129	 -0.04259	  1.27282	705.20697	 24.70	
 13.611	-143.999	  1.17030	  0.21933	  1.00749	  0.30363	  0.91673	 -0.04389	  1.27307	705.19299	 24.70	
 13.601	-136.825	  1.17012	  0.25124	  0.96395	  0.26150	  0.96885	 -0.04510	  1.27470	705.31403	 24.70	
 13.596	-129.640	  1.17029	  0.28957	  0.91439	  0.22343	  1.01621	 -0.04619	  1.27608	705.27197	 24.70	
 13.611	-122.431	  1.16611	  0.33149	  0.85662	  0.19184	  1.05169	 -0.04713	  1.27279	705.28802	 24.70	
 13.604	-115.211	  1.16779	  0.38125	  0.79936	  0.16847	  1.08495	 -0.04859	  1.27435	705.27502	 24.70	
 13.595	-108.042	  1.16449	  0.43300	  0.73611	  0.14988	  1.10653	 -0.04914	  1.27203	705.30902	 24.70	
 13.607	-100.793	  1.16664	  0.49090	  0.67382	  0.13599	  1.12555	 -0.05126	  1.27426	705.20502	 24.70	
 13.601	-93.617	  1.16740	  0.55116	  0.61075	  0.12997	  1.13454	 -0.05102	  1.27670	705.31097	 24.70	
 13.601	-86.383	  1.16223	  0.61110	  0.54587	  0.12984	  1.12830	 -0.05222	  1.27008	705.38702	 24.70	
 13.607	-79.207	  1.16409	  0.67461	  0.48565	  0.13472	  1.12131	 -0.05132	  1.27136	705.33698	 24.70	
 13.595	-71.958	  1.16292	  0.73729	  0.42742	  0.14726	  1.10258	 -0.04991	  1.27077	705.37903	 24.70	
 13.604	-64.789	  1.16998	  0.80364	  0.37558	  0.16719	  1.08322	 -0.05126	  1.27709	705.43201	 24.70	
 13.611	-57.569	  1.16876	  0.86168	  0.32456	  0.19058	  1.04875	 -0.05070	  1.27576	705.44702	 24.70	
 13.596	-50.360	  1.16840	  0.91597	  0.28045	  0.22144	  1.00780	 -0.05065	  1.27426	705.34003	 24.70	
 13.601	-43.175	  1.17082	  0.96833	  0.24169	  0.25845	  0.96191	 -0.05084	  1.27573	705.41998	 24.70	
 13.611	-36.001	  1.16156	  1.00543	  0.20578	  0.29897	  0.90234	 -0.04736	  1.26538	705.27197	 24.70	
 13.609	-28.790	  1.16284	  1.04331	  0.17904	  0.34520	  0.84713	 -0.04599	  1.26481	705.43701	 24.70	
 13.601	-21.647	  1.17267	  1.08091	  0.15871	  0.39876	  0.79466	 -0.04507	  1.27458	705.26801	 24.70	
 13.611	-14.417	  1.17161	  1.10200	  0.14355	  0.45520	  0.73093	 -0.04472	  1.27311	705.50500	 24.70	
 13.608	 -7.147	  1.16819	  1.11279	  0.13339	  0.51298	  0.66602	 -0.04536	  1.26808	705.38800	 24.70	
 13.600	  0.000	  1.17103	  1.11988	  0.13094	  0.57404	  0.60627	 -0.04532	  1.27009	705.34198	 24.70	
 13.608	  7.147	  1.17546	  1.12138	  0.13503	  0.63949	  0.54740	 -0.04683	  1.27478	705.42902	 24.70	
 13.611	 14.417	  1.17280	  1.10687	  0.14519	  0.70122	  0.48806	 -0.04659	  1.27049	705.45502	 24.70	
 13.601	 21.647	  1.17322	  1.08661	  0.16265	  0.76427	  0.43340	 -0.04392	  1.27080	705.36200	 24.70	
 13.609	 28.790	  1.17250	  1.05876	  0.18265	  0.82377	  0.38142	 -0.04165	  1.26864	705.42603	 24.70	
 13.611	 36.001	  1.17568	  1.02641	  0.21098	  0.88268	  0.33632	 -0.04186	  1.27132	705.45697	 24.70	
 13.601	 43.175	  1.17545	  0.98312	  0.24497	  0.93439	  0.29569	 -0.04282	  1.27159	705.37500	 24.70	
 13.596	 50.360	  1.17851	  0.93596	  0.28582	  0.98360	  0.26097	 -0.04404	  1.27335	705.37097	 24.70	
 13.611	 57.569	  1.17818	  0.88213	  0.32977	  1.02493	  0.23004	 -0.04450	  1.27265	705.44000	 24.70	
 13.604	 64.789	  1.17611	  0.82244	  0.38031	  1.05610	  0.20546	 -0.04192	  1.26931	705.49200	 24.70	
 13.595	 71.958	  1.18475	  0.76659	  0.43760	  1.08834	  0.18994	 -0.04155	  1.27785	705.46802	 24.70	
 13.607	 79.207	  1.18303	  0.70293	  0.49487	  1.10434	  0.17796	 -0.04228	  1.27533	705.50800	 24.70	
 13.601	 86.383	  1.18166	  0.63942	  0.55490	  1.11143	  0.17251	 -0.04237	  1.27282	705.41998	 24.70	
 13.601	 93.617	  1.18104	  0.57635	  0.61800	  1.11038	  0.17309	 -0.04356	  1.27232	705.38702	 24.70	
 13.607	100.793	  1.17854	  0.51429	  0.67949	  1.09982	  0.17932	 -0.04371	  1.26960	705.39801	 24.70	
 13.595	108.042	  1.17801	  0.45661	  0.74283	  1.08249	  0.19196	 -0.04325	  1.26865	705.30298	 24.70	
 13.604	115.211	  1.18287	  0.40381	  0.80761	  1.06251	  0.21085	 -0.04379	  1.27483	705.40997	 24.70	
 13.611	122.431	  1.17873	  0.35257	  0.86301	  1.02515	  0.23584	 -0.04323	  1.26911	705.43701	 24.70	
 13.596	129.640	  1.18553	  0.30902	  0.92271	  0.98984	  0.26811	 -0.04388	  1.27572	705.43500	 24.70	
 13.601	136.825	  1.18174	  0.26902	  0.96987	  0.94020	  0.30424	 -0.04395	  1.27314	705.34802	 24.70	
 13.611	143.999	  1.17844	  0.23378	  1.01124	  0.88645	  0.34447	 -0.04334	  1.26990	705.46002	 24.70	
 13.609	151.210	  1.17834	  0.20346	  1.04818	  0.82963	  0.39036	 -0.04367	  1.27118	705.49902	 24.70	
 13.601	158.353	  1.18105	  0.18296	  1.07911	  0.77092	  0.44377	 -0.04273	  1.27478	705.50500	 24.70	
 13.611	165.583	  1.17526	  0.16437	  1.09609	  0.70612	  0.49606	 -0.04212	  1.26984	705.43500	 24.70	
 13.608	172.853	  1.17303	  0.15329	  1.10723	  0.64127	  0.55399	 -0.04278	  1.26807	705.61499	 24.70	
 15.298	173.587	  1.14323	  0.08714	  1.14464	  0.61687	  0.53051	 -0.05255	  1.27062	705.46503	 24.70	
 15.291	167.167	  1.14509	  0.09649	  1.13528	  0.67997	  0.47440	 -0.05218	  1.27148	705.45099	 24.70	
 15.307	160.676	  1.14946	  0.11126	  1.12030	  0.74515	  0.41927	 -0.05260	  1.27474	705.41803	 24.70	
 15.300	154.261	  1.15080	  0.13203	  1.09464	  0.80720	  0.36711	 -0.05160	  1.27488	705.54700	 24.70	
 15.288	147.854	  1.14741	  0.15537	  1.05822	  0.86227	  0.31802	 -0.05014	  1.27046	705.36499	 24.70	
 15.293	141.428	  1.14484	  0.18428	  1.01604	  0.91519	  0.27327	 -0.05152	  1.26714	705.44098	 24.70	
 15.299	134.985	  1.14960	  0.22110	  0.97530	  0.97019	  0.23608	 -0.05266	  1.27215	705.43500	 24.70	
 15.305	128.583	  1.14853	  0.26031	  0.92326	  1.01558	  0.20058	 -0.05342	  1.27126	705.49200	 24.70	
 15.309	122.142	  1.15035	  0.30408	  0.86966	  1.05685	  0.17006	 -0.05209	  1.27334	705.44098	 24.70	
 15.304	115.711	  1.14893	  0.35360	  0.81008	  1.08794	  0.14711	 -0.05177	  1.27047	705.32599	 24.60	
 15.297	109.291	  1.14703	  0.40512	  0.74752	  1.11220	  0.12761	 -0.05085	  1.26909	705.38098	 24.70	
 15.293	102.897	  1.14958	  0.46130	  0.68644	  1.13353	  0.11361	 -0.05192	  1.27243	705.46503	 24.70	
 15.293	 96.458	  1.15176	  0.52222	  0.62429	  1.14723	  0.10505	 -0.05236	  1.27506	705.53400	 24.70	
 15.300	 90.000	  1.15155	  0.58373	  0.56151	  1.15036	  0.10253	 -0.05126	  1.27456	705.61798	 24.60	
 15.293	 83.542	  1.15255	  0.64643	  0.49981	  1.14756	  0.10413	 -0.05130	  1.27679	705.61298	 24.60	
 15.293	 77.103	  1.15162	  0.70896	  0.44062	  1.13531	  0.11258	 -0.05042	  1.27573	705.64801	 24.60	
 15.297	 70.709	  1.14960	  0.76984	  0.38361	  1.11427	  0.12450	 -0.04990	  1.27430	705.53601	 24.60	
 15.304	 64.289	  1.14986	  0.83134	  0.33051	  1.08872	  0.14210	 -0.04961	  1.27507	705.54700	 24.60	
 15.309	 57.858	  1.14763	  0.88779	  0.28103	  1.05449	  0.16553	 -0.05158	  1.27394	705.55298	 24.60	
 15.305	 51.417	  1.14482	  0.94045	  0.23606	  1.01203	  0.19319	 -0.05111	  1.27238	705.53003	 24.60	
 15.299	 45.015	  1.14461	  0.98970	  0.19880	  0.96551	  0.22951	 -0.05225	  1.27270	705.57599	 24.60	
 15.293	 38.572	  1.14615	  1.03604	  0.16416	  0.91501	  0.26922	 -0.04909	  1.27366	705.45203	 24.60	
 15.288	 32.146	  1.14340	  1.07163	  0.13360	  0.85809	  0.31004	 -0.04836	  1.27151	705.57800	 24.60	
 15.300	 25.739	  1.14835	  1.10856	  0.11007	  0.80389	  0.35837	 -0.04806	  1.27808	705.52301	 24.60	
 15.307	 19.324	  1.14533	  1.13070	  0.09009	  0.74017	  0.40996	 -0.04794	  1.27533	705.55103	 24.60	
 15.291	 12.833	  1.14237	  1.14501	  0.07758	  0.67563	  0.46416	 -0.05019	  1.27163	705.50800	 24.60	
 15.298	  6.413	  1.14519	  1.15867	  0.06792	  0.61501	  0.52246	 -0.05085	  1.27700	705.42603	 24.60	
 15.300	  0.000	  1.14418	  1.16048	  0.06741	  0.55323	  0.58366	 -0.05028	  1.27517	705.43201	 24.60	
 15.298	 -6.413	  1.14086	  1.15323	  0.06666	  0.48964	  0.64191	 -0.04897	  1.27361	705.55298	 24.60	
 15.291	-12.833	  1.13734	  1.13670	  0.07531	  0.43115	  0.70201	 -0.04796	  1.27001	705.45502	 24.60	
 15.307	-19.324	  1.13848	  1.11894	  0.08949	  0.37614	  0.76635	 -0.05019	  1.27193	705.45502	 24.60	
 15.300	-25.739	  1.13755	  1.09164	  0.10759	  0.32397	  0.82528	 -0.04985	  1.27241	705.58099	 24.60	
 15.288	-32.146	  1.13906	  1.05919	  0.13153	  0.27675	  0.88417	 -0.04990	  1.27493	705.45099	 24.60	
 15.293	-38.572	  1.13875	  1.01884	  0.16089	  0.23312	  0.93962	 -0.05341	  1.27483	705.43701	 24.60	
 15.299	-45.015	  1.13000	  0.96617	  0.19244	  0.19107	  0.98409	 -0.05517	  1.26709	705.46002	 24.60	
 15.305	-51.417	  1.13248	  0.91678	  0.23262	  0.15847	  1.03038	 -0.05662	  1.26996	705.45697	 24.60	
 15.309	-57.858	  1.13376	  0.86222	  0.27743	  0.12975	  1.07178	 -0.05547	  1.27315	705.52197	 24.60	
 15.304	-64.289	  1.13607	  0.80557	  0.32714	  0.10708	  1.10759	 -0.05382	  1.27619	705.51398	 24.60	
 15.297	-70.709	  1.13319	  0.74246	  0.37764	  0.08706	  1.13168	 -0.05307	  1.27317	705.54700	 24.60	
 15.293	-77.103	  1.13014	  0.67847	  0.43237	  0.07282	  1.14859	 -0.05391	  1.27092	705.45502	 24.60	
 15.293	-83.542	  1.13339	  0.61809	  0.49300	  0.06556	  1.16428	 -0.05466	  1.27483	705.54700	 24.60	
 15.300	-90.000	  1.13311	  0.55576	  0.55376	  0.06301	  1.16828	 -0.05668	  1.27470	705.67200	 24.60	
 15.293	-96.458	  1.13447	  0.49553	  0.61771	  0.06647	  1.16600	 -0.05611	  1.27559	705.57300	 24.60	
 15.293	-102.897	  1.13299	  0.43850	  0.67999	  0.07677	  1.15315	 -0.05678	  1.27305	705.51099	 24.60	
 15.297	-109.291	  1.13199	  0.38291	  0.74125	  0.08934	  1.13527	 -0.05687	  1.27311	705.57800	 24.60	
 15.304	-115.711	  1.13037	  0.33134	  0.80083	  0.10869	  1.10734	 -0.05647	  1.26920	705.56097	 24.60	
 15.309	-122.142	  1.12956	  0.28282	  0.85803	  0.13095	  1.07453	 -0.05430	  1.26823	705.61298	 24.60	
 15.305	-128.583	  1.13441	  0.23992	  0.91616	  0.15928	  1.04004	 -0.05360	  1.27305	705.49200	 24.60	
 15.299	-134.985	  1.13316	  0.20234	  0.96596	  0.19327	  0.99480	 -0.05305	  1.27106	705.55103	 24.60	
 15.293	-141.428	  1.13737	  0.17210	  1.01417	  0.23481	  0.94684	 -0.05286	  1.27290	705.39001	 24.60	
 15.288	-147.854	  1.13749	  0.14348	  1.05388	  0.27912	  0.89180	 -0.05261	  1.27171	705.45203	 24.60	
 15.300	-154.261	  1.13996	  0.12014	  1.08846	  0.32703	  0.83619	 -0.05197	  1.27442	705.46600	 24.60	
 15.307	-160.676	  1.14057	  0.10422	  1.11402	  0.37911	  0.77651	 -0.05325	  1.27226	705.50299	 24.60	
 15.291	-167.167	  1.14403	  0.09143	  1.13599	  0.43648	  0.71522	 -0.05437	  1.27432	705.47998	 24.60	
 15.298	-173.587	  1.14816	  0.08493	  1.15062	  0.49633	  0.65520	 -0.05424	  1.27696	705.49103	 24.60	
 15.300	180.000	  1.14708	  0.08273	  1.15268	  0.55587	  0.59324	 -0.05260	  1.27581	705.55402	 24.60	
 17.000	180.000	  1.11173	  0.03055	  1.18244	  0.53502	  0.57048	 -0.05621	  1.27274	705.44702	 24.60	
 16.990	-174.179	  1.11442	  0.03538	  1.18180	  0.47842	  0.63304	 -0.05776	  1.27734	705.52002	 24.60	
 17.009	-168.383	  1.11042	  0.03884	  1.17012	  0.41960	  0.69140	 -0.05951	  1.27546	705.47400	 24.60	
 17.000	-162.596	  1.10728	  0.04551	  1.15116	  0.36129	  0.75002	 -0.05864	  1.27439	705.37500	 24.60	
 16.990	-156.759	  1.10224	  0.06010	  1.12317	  0.30882	  0.80642	 -0.05726	  1.26943	705.52197	 24.60	
 16.995	-150.919	  1.10377	  0.08155	  1.09470	  0.26228	  0.86598	 -0.05622	  1.27207	705.60699	 24.60	
 16.988	-145.161	  1.10275	  0.10384	  1.05793	  0.21671	  0.92065	 -0.05659	  1.27173	705.73602	 24.60	
 17.014	-139.343	  1.10148	  0.13122	  1.01744	  0.17503	  0.97315	 -0.05692	  1.27466	705.56097	 24.60	
 17.007	-133.546	  1.09985	  0.16272	  0.96973	  0.13825	  1.01937	 -0.05760	  1.27272	705.62903	 24.60	
 17.001	-127.699	  1.09491	  0.20109	  0.91441	  0.10696	  1.05870	 -0.05712	  1.26822	705.44098	 24.60	
 17.006	-121.937	  1.09946	  0.24392	  0.86411	  0.08153	  1.10156	 -0.05764	  1.27334	705.50000	 24.60	
 17.002	-116.134	  1.09416	  0.28402	  0.80256	  0.05341	  1.12955	 -0.05854	  1.26924	705.54401	 24.60	
 17.001	-110.310	  1.09612	  0.33661	  0.74494	  0.03840	  1.15699	 -0.05835	  1.27280	705.41199	 24.60	
 16.988	-104.517	  1.09842	  0.38966	  0.68515	  0.02544	  1.17783	 -0.05737	  1.27514	705.54999	 24.60	
 17.008	-98.662	  1.09499	  0.44425	  0.62168	  0.01546	  1.18764	 -0.05545	  1.27163	705.46899	 24.60	
 16.996	-92.909	  1.09404	  0.49981	  0.55995	  0.00944	  1.19208	 -0.05361	  1.27014	705.45697	 24.60	
 16.996	-87.091	  1.09554	  0.56075	  0.50115	  0.01009	  1.19294	 -0.05250	  1.27185	705.53003	 24.60	
 17.012	-81.253	  1.09422	  0.62086	  0.44069	  0.01284	  1.18530	 -0.05190	  1.27134	705.41602	 24.60	
 16.988	-75.483	  1.09602	  0.68203	  0.38592	  0.02230	  1.17297	 -0.05116	  1.27297	705.40997	 24.60	
 17.001	-69.690	  1.09584	  0.74367	  0.33315	  0.03691	  1.15278	 -0.05149	  1.27210	705.50800	 24.60	
 17.002	-63.866	  1.09604	  0.80331	  0.28082	  0.05310	  1.12624	 -0.05239	  1.27113	705.49200	 24.60	
 17.006	-58.063	  1.09530	  0.86037	  0.23454	  0.07642	  1.09191	 -0.05301	  1.26999	705.54498	 24.60	
 17.001	-52.301	  1.09859	  0.91733	  0.19349	  0.10493	  1.05486	 -0.05371	  1.27156	705.60602	 24.60	
 17.007	-46.454	  1.10299	  0.97326	  0.15291	  0.13446	  1.01490	 -0.05450	  1.27711	705.41302	 24.60	
 17.014	-40.657	  1.10563	  1.02247	  0.12085	  0.17109	  0.96912	 -0.05243	  1.27828	705.59497	 24.60	
 16.988	-34.839	  1.10164	  1.06069	  0.08807	  0.20888	  0.91155	 -0.05218	  1.27331	705.47998	 24.60	
 16.995	-29.081	  1.10719	  1.10201	  0.06604	  0.25607	  0.85970	 -0.05014	  1.27777	705.43298	 24.60	
 16.990	-23.241	  1.10548	  1.13015	  0.04701	  0.30553	  0.79948	 -0.04819	  1.27499	705.54999	 24.60	
 17.000	-17.404	  1.10802	  1.15708	  0.02966	  0.35657	  0.74071	 -0.04903	  1.27679	705.33301	 24.60	
 17.009	-11.617	  1.10402	  1.16988	  0.02064	  0.41159	  0.67676	 -0.04724	  1.26984	705.44000	 24.60	
 16.990	 -5.821	  1.10546	  1.18117	  0.01269	  0.46798	  0.61680	 -0.04802	  1.27092	705.46899	 24.60	
 17.000	  0.000	  1.10437	  1.18577	  0.00756	  0.52526	  0.55500	 -0.04935	  1.27031	705.47400	 24.60	
 16.990	  5.821	  1.10813	  1.18660	  0.01157	  0.58857	  0.49787	 -0.04975	  1.27389	705.49902	 24.60	
 17.009	 11.617	  1.10699	  1.17645	  0.02180	  0.65015	  0.44300	 -0.04862	  1.27224	705.47400	 24.60	
 17.000	 17.404	  1.10557	  1.15949	  0.03494	  0.71042	  0.38932	 -0.04762	  1.26902	705.39600	 24.60	
 16.990	 23.241	  1.11004	  1.14151	  0.05089	  0.77450	  0.33888	 -0.04766	  1.27387	705.44702	 24.60	
 16.995	 29.081	  1.11126	  1.11334	  0.07276	  0.83393	  0.29251	 -0.04825	  1.27332	705.49597	 24.60	
 16.988	 34.839	  1.11025	  1.07904	  0.09486	  0.88898	  0.24702	 -0.05032	  1.27252	705.49200	 24.60	
 17.014	 40.657	  1.11235	  1.04037	  0.12734	  0.94441	  0.20960	 -0.05284	  1.27353	705.51898	 24.60	
 17.007	 46.454	  1.10864	  0.99177	  0.16150	  0.99083	  0.17327	 -0.05483	  1.26992	705.50500	 24.60	
 17.001	 52.301	  1.10866	  0.94108	  0.19685	  1.03468	  0.13931	 -0.05555	  1.26924	705.46100	 24.60	
 17.006	 58.063	  1.11442	  0.89245	  0.24102	  1.07929	  0.11309	 -0.05573	  1.27555	705.54401	 24.60	
 17.002	 63.866	  1.11145	  0.83264	  0.28723	  1.10921	  0.09009	 -0.05465	  1.27125	705.53900	 24.60	
 17.001	 69.690	  1.11641	  0.77596	  0.33834	  1.14084	  0.07146	 -0.05376	  1.27550	705.55798	 24.60	
 16.988	 75.483	  1.11529	  0.71466	  0.39236	  1.16014	  0.05901	 -0.05537	  1.27409	705.48901	 24.60	
 17.012	 81.253	  1.11566	  0.65351	  0.44840	  1.17407	  0.04986	 -0.05616	  1.27435	705.63000	 24.60	
 16.996	 87.091	  1.11456	  0.59095	  0.50574	  1.18006	  0.04314	 -0.05802	  1.27322	705.62097	 24.60	
 16.996	 92.909	  1.11520	  0.53026	  0.56826	  1.17992	  0.04557	 -0.05663	  1.27234	705.53900	 24.60	
 17.008	 98.662	  1.11537	  0.47036	  0.62814	  1.17395	  0.04697	 -0.05585	  1.27296	705.52002	 24.60	
 16.988	104.517	  1.11546	  0.41342	  0.69107	  1.15976	  0.05807	 -0.05494	  1.27218	705.55103	 24.60	
 17.001	110.310	  1.11658	  0.36022	  0.75350	  1.14086	  0.07219	 -0.05541	  1.27311	705.39801	 24.60	
 17.002	116.134	  1.11772	  0.30901	  0.81489	  1.11528	  0.09118	 -0.05665	  1.27421	705.29999	 24.60	
 17.006	121.937	  1.11258	  0.26281	  0.86891	  1.07603	  0.11708	 -0.05803	  1.26810	705.42603	 24.60	
 17.001	127.699	  1.11675	  0.21781	  0.92674	  1.04292	  0.14127	 -0.05856	  1.27281	705.51599	 24.60	
 17.007	133.546	  1.11319	  0.18003	  0.97582	  0.99517	  0.17489	 -0.05814	  1.26964	705.58398	 24.60	
 17.014	139.343	  1.11576	  0.14549	  1.02509	  0.94804	  0.21212	 -0.05752	  1.27246	705.58197	 24.60	
 16.988	145.161	  1.11751	  0.11333	  1.06771	  0.89551	  0.25243	 -0.05641	  1.27473	705.56702	 24.60	
 16.995	150.919	  1.11777	  0.08861	  1.10379	  0.84005	  0.29827	 -0.05555	  1.27587	705.53699	 24.60	
 16.990	156.759	  1.11444	  0.06754	  1.13058	  0.77936	  0.34530	 -0.05541	  1.27234	705.49103	 24.60	
 17.000	162.596	  1.11459	  0.05053	  1.15503	  0.71824	  0.39803	 -0.05810	  1.27433	705.42603	 24.60	
 17.009	168.383	  1.11099	  0.03752	  1.16885	  0.65543	  0.45165	 -0.05774	  1.27175	705.53900	 24.60	
 16.990	174.179	  1.11242	  0.03250	  1.17983	  0.59639	  0.51004	 -0.05660	  1.27370	705.46100	 24.60	
 18.709	174.675	  1.06918	 -0.03968	  1.20598	  0.56171	  0.47527	 -0.05480	  1.27072	705.47198	 24.60	
 18.703	169.441	  1.07290	 -0.03264	  1.19997	  0.62296	  0.42109	 -0.05754	  1.27332	705.64398	 24.60	
 18.691	164.085	  1.07072	 -0.01937	  1.18125	  0.68322	  0.36627	 -0.05676	  1.26942	705.48499	 24.50	
 18.706	158.818	  1.07294	 -0.00525	  1.16302	  0.74511	  0.31449	 -0.05668	  1.27096	705.45697	 24.60	
 18.695	153.537	  1.07736	  0.01484	  1.14007	  0.80709	  0.26852	 -0.05398	  1.27536	705.46899	 24.60	
 18.704	148.255	  1.07516	  0.03718	  1.10453	  0.86290	  0.22259	 -0.05427	  1.27088	705.50000	 24.60	
 18.698	142.952	  1.07489	  0.06418	  1.06585	  0.91829	  0.18003	 -0.05654	  1.27137	705.56500	 24.60	
 18.699	137.625	  1.07629	  0.09650	  1.02296	  0.97112	  0.14334	 -0.05595	  1.27184	705.49200	 24.60	
 18.705	132.343	  1.07488	  0.13198	  0.97388	  1.01623	  0.11042	 -0.05704	  1.26780	705.45801	 24.50	
 18.713	127.067	  1.07832	  0.17054	  0.92566	  1.06362	  0.08006	 -0.05702	  1.27309	705.45502	 24.60	
 18.700	121.794	  1.07889	  0.21324	  0.87050	  1.10236	  0.05304	 -0.05479	  1.27277	705.38202	 24.50	
 18.698	116.504	  1.07804	  0.25858	  0.81202	  1.13480	  0.03032	 -0.05226	  1.27384	705.45099	 24.50	
 18.707	111.165	  1.07770	  0.30837	  0.75191	  1.16230	  0.01224	 -0.05097	  1.27398	705.46002	 24.50	
 18.690	105.863	  1.08084	  0.36201	  0.69302	  1.18586	 -0.00118	 -0.04973	  1.27646	705.50800	 24.50	
 18.696	100.583	  1.07880	  0.41582	  0.62980	  1.19860	 -0.01217	 -0.05110	  1.27383	705.53003	 24.50	
 18.700	 95.309	  1.07799	  0.47265	  0.56834	  1.20662	 -0.01810	 -0.05221	  1.27464	705.54999	 24.50	
 18.700	 90.000	  1.07750	  0.53205	  0.50803	  1.20878	 -0.01953	 -0.05399	  1.27320	705.52698	 24.50	
 18.700	 84.691	  1.07887	  0.59368	  0.44812	  1.20830	 -0.01906	 -0.05502	  1.27685	705.49597	 24.50	
 18.696	 79.417	  1.07335	  0.65076	  0.38924	  1.19370	 -0.01420	 -0.05532	  1.27045	705.56201	 24.50	
 18.690	 74.137	  1.07555	  0.71259	  0.33519	  1.18069	 -0.00459	 -0.05317	  1.27345	705.49200	 24.50	
 18.707	 68.835	  1.07477	  0.77337	  0.28153	  1.16048	  0.00750	 -0.05244	  1.27548	705.50800	 24.50	
 18.698	 63.496	  1.07147	  0.82964	  0.23137	  1.12927	  0.02410	 -0.05176	  1.27075	705.40100	 24.50	
 18.700	 58.206	  1.06832	  0.88455	  0.18531	  1.09305	  0.04622	 -0.05210	  1.26762	705.49597	 24.50	
 18.713	 52.933	  1.07218	  0.94162	  0.14359	  1.05844	  0.07311	 -0.05482	  1.27343	705.41302	 24.50	
 18.705	 47.657	  1.06739	  0.98803	  0.10536	  1.00950	  0.10293	 -0.05429	  1.26791	705.42902	 24.50	
 18.699	 42.375	  1.06834	  1.03572	  0.07113	  0.96373	  0.13500	 -0.05204	  1.26979	705.44098	 24.50	
 18.698	 37.048	  1.06729	  1.07676	  0.04017	  0.91096	  0.17189	 -0.04908	  1.26994	705.26001	 24.50	
 18.704	 31.745	  1.06573	  1.11323	  0.01334	  0.85412	  0.21265	 -0.04511	  1.26860	705.44000	 24.50	
 18.695	 26.463	  1.06445	  1.14312	 -0.00974	  0.79555	  0.25658	 -0.04551	  1.26790	705.53400	 24.50	
 18.706	 21.182	  1.06530	  1.17030	 -0.02791	  0.73711	  0.30424	 -0.04461	  1.26932	705.35101	 24.50	
 18.691	 15.915	  1.06997	  1.19483	 -0.04174	  0.67888	  0.35655	 -0.04476	  1.27530	705.41998	 24.50	
 18.703	 10.559	  1.06690	  1.20604	 -0.05411	  0.61525	  0.40927	 -0.04493	  1.27302	705.49902	 24.50	
 18.709	  5.325	  1.06373	  1.21064	 -0.05940	  0.55380	  0.46395	 -0.04361	  1.26928	705.35602	 24.50	
 18.700	  0.000	  1.06310	  1.21107	 -0.06165	  0.49249	  0.52250	 -0.04298	  1.26898	705.45697	 24.50	
 18.709	 -5.325	  1.06386	  1.20996	 -0.06130	  0.43406	  0.58306	 -0.04340	  1.27211	705.50500	 24.60	
 18.703	-10.559	  1.06186	  1.19741	 -0.05559	  0.37737	  0.64088	 -0.04294	  1.26949	705.39801	 24.60	
 18.691	-15.915	  1.06245	  1.18215	 -0.04598	  0.32192	  0.70382	 -0.04546	  1.27124	705.41302	 24.60	
 18.706	-21.182	  1.06064	  1.15878	 -0.03257	  0.26979	  0.76184	 -0.04537	  1.26978	705.49103	 24.60	
 18.695	-26.463	  1.05904	  1.12964	 -0.01462	  0.22153	  0.81983	 -0.04681	  1.26993	705.37799	 24.60	
 18.704	-31.745	  1.05979	  1.09821	  0.00697	  0.17602	  0.87876	 -0.04654	  1.27138	705.53003	 24.50	
 18.698	-37.048	  1.05960	  1.05810	  0.03393	  0.13466	  0.93390	 -0.04960	  1.27262	705.55103	 24.50	
 18.699	-42.375	  1.05746	  1.01260	  0.06358	  0.09690	  0.98420	 -0.04784	  1.27168	705.40100	 24.50	
 18.705	-47.657	  1.06005	  0.96688	  0.09663	  0.06200	  1.03447	 -0.05094	  1.27622	705.43298	 24.50	
 18.713	-52.933	  1.05550	  0.91128	  0.13297	  0.03049	  1.07402	 -0.04982	  1.27108	705.47699	 24.50	
 18.700	-58.206	  1.05274	  0.85335	  0.17472	  0.00457	  1.11027	 -0.04877	  1.26834	705.44702	 24.50	
 18.698	-63.496	  1.05173	  0.79490	  0.21922	 -0.01769	  1.14190	 -0.04684	  1.26792	705.38501	 24.50	
 18.707	-68.835	  1.05464	  0.73778	  0.27023	 -0.03481	  1.17283	 -0.04424	  1.27180	705.35101	 24.50	
 18.690	-74.137	  1.05001	  0.67335	  0.32162	 -0.04771	  1.18839	 -0.04661	  1.26755	705.49200	 24.50	
 18.696	-79.417	  1.05311	  0.61476	  0.37753	 -0.05765	  1.20744	 -0.04801	  1.27124	705.44000	 24.60	
 18.700	-84.691	  1.05313	  0.55285	  0.43444	 -0.06596	  1.21868	 -0.04651	  1.27260	705.50000	 24.60	
 18.700	-90.000	  1.05477	  0.49312	  0.49515	 -0.06790	  1.22430	 -0.04891	  1.27458	705.50800	 24.60	
 18.700	-95.309	  1.05151	  0.43290	  0.55449	 -0.06479	  1.21758	 -0.05124	  1.27017	705.39600	 24.60	
 18.696	-100.583	  1.05107	  0.37702	  0.61480	 -0.05817	  1.20865	 -0.05333	  1.26991	705.59497	 24.60	
 18.690	-105.863	  1.05912	  0.32568	  0.68167	 -0.04809	  1.20330	 -0.05527	  1.27980	705.55103	 24.60	
 18.707	-111.165	  1.05161	  0.27240	  0.73732	 -0.03430	  1.17499	 -0.05676	  1.26921	705.53900	 24.60	
 18.698	-116.504	  1.05490	  0.22435	  0.79964	 -0.01675	  1.15243	 -0.05812	  1.27382	705.50500	 24.60	
 18.700	-121.794	  1.05287	  0.17993	  0.85567	  0.00545	  1.11866	 -0.05771	  1.27107	705.50800	 24.60	
 18.713	-127.067	  1.05479	  0.13948	  0.91253	  0.03233	  1.08249	 -0.05791	  1.27217	705.53003	 24.60	
 18.705	-132.343	  1.05588	  0.10347	  0.96424	  0.06397	  1.03946	 -0.05763	  1.27035	705.50800	 24.60	
 18.699	-137.625	  1.05675	  0.07144	  1.01220	  0.09834	  0.99210	 -0.05730	  1.27079	705.52197	 24.60	
 18.698	-142.952	  1.06164	  0.04275	  1.05981	  0.13751	  0.94529	 -0.05821	  1.27477	705.59003	 24.60	
 18.704	-148.255	  1.05978	  0.01761	  1.09560	  0.17897	  0.88851	 -0.05743	  1.27091	705.48199	 24.60	
 18.695	-153.537	  1.06450	 -0.00262	  1.13269	  0.22644	  0.83428	 -0.05682	  1.27448	705.45203	 24.60	
 18.706	-158.818	  1.06501	 -0.01934	  1.16001	  0.27513	  0.77530	 -0.05689	  1.27435	705.65399	 24.60	
 18.691	-164.085	  1.06250	 -0.03009	  1.17721	  0.32721	  0.71421	 -0.05712	  1.27004	705.61700	 24.60	
 18.703	-169.441	  1.06492	 -0.03824	  1.19448	  0.38378	  0.65411	 -0.05705	  1.27087	705.57501	 24.60	
 18.709	-174.675	  1.06819	 -0.04267	  1.20557	  0.44136	  0.59514	 -0.05607	  1.27328	705.67200	 24.60	
 18.700	180.000	  1.06751	 -0.04283	  1.20628	  0.49934	  0.53546	 -0.05542	  1.26948	705.66901	 24.60	
 20.400	180.000	  1.02108	 -0.12351	  1.23025	  0.45889	  0.49429	 -0.05422	  1.26950	705.48499	 24.60	
 20.401	-175.153	  1.01745	 -0.12311	  1.22438	  0.39926	  0.55189	 -0.05255	  1.26829	705.55298	 24.60	
 20.407	-170.264	  1.02293	 -0.12073	  1.22482	  0.34390	  0.61511	 -0.05343	  1.27714	705.54199	 24.60	
 20.410	-165.423	  1.01621	 -0.11310	  1.20469	  0.28682	  0.67231	 -0.05351	  1.27077	705.50299	 24.60	
 20.392	-160.496	  1.01741	 -0.10115	  1.18655	  0.23489	  0.73476	 -0.05429	  1.27271	705.46100	 24.60	
 20.401	-155.705	  1.01375	 -0.08802	  1.15923	  0.18392	  0.79098	 -0.05382	  1.27094	705.47498	 24.60	
 20.405	-150.835	  1.01346	 -0.07023	  1.13014	  0.13757	  0.84995	 -0.05669	  1.27172	705.51300	 24.60	
 20.397	-145.903	  1.01197	 -0.04803	  1.09268	  0.09311	  0.90615	 -0.05582	  1.27261	705.56799	 24.60	
 20.392	-141.062	  1.01172	 -0.02342	  1.05210	  0.05378	  0.95921	 -0.05781	  1.27277	705.62598	 24.60	
 20.396	-136.227	  1.00542	  0.00590	  1.00249	  0.01701	  1.00452	 -0.05635	  1.26660	705.65198	 24.60	
 20.408	-131.372	  1.00809	  0.03703	  0.95649	 -0.01733	  1.05522	 -0.05656	  1.27270	705.57300	 24.60	
 20.410	-126.511	  1.00921	  0.07384	  0.90542	 -0.04648	  1.09896	 -0.05485	  1.27553	705.52698	 24.60	
 20.400	-121.604	  1.00572	  0.11398	  0.84588	 -0.07106	  1.13150	 -0.05516	  1.27103	705.59003	 24.60	
 20.403	-116.741	  1.00682	  0.15800	  0.78828	 -0.09338	  1.16577	 -0.05529	  1.27273	705.62299	 24.60	
 20.413	-111.900	  1.00276	  0.20197	  0.72638	 -0.11402	  1.19104	 -0.05438	  1.27081	705.52002	 24.60	
 20.398	-107.004	  1.00488	  0.25375	  0.66546	 -0.12747	  1.21313	 -0.05325	  1.27264	705.54999	 24.60	
 20.394	-102.132	  1.00347	  0.30545	  0.60456	 -0.13773	  1.22621	 -0.05159	  1.27141	705.58398	 24.60	
 20.403	-97.332	  1.00621	  0.36068	  0.54450	 -0.14726	  1.24134	 -0.04828	  1.27549	705.44299	 24.60	
 20.392	-92.440	  1.00037	  0.41778	  0.47985	 -0.14926	  1.23867	 -0.04473	  1.26857	705.48499	 24.60	
 20.392	-87.560	  1.00290	  0.47901	  0.42083	 -0.14893	  1.23959	 -0.04716	  1.27066	705.61298	 24.60	
 20.403	-82.668	  1.00118	  0.53791	  0.35963	 -0.14875	  1.23492	 -0.04084	  1.27107	705.44299	 24.60	
 20.394	-77.868	  1.00069	  0.59782	  0.30579	 -0.14036	  1.22248	 -0.04344	  1.26966	705.52197	 24.60	
 20.398	-72.996	  1.00488	  0.66177	  0.25370	 -0.12911	  1.20895	 -0.04228	  1.27215	705.51300	 24.60	
 20.413	-68.100	  1.00137	  0.72203	  0.20119	 -0.11418	  1.18300	 -0.04431	  1.26770	705.71002	 24.60	
 20.403	-63.259	  1.00521	  0.78348	  0.15366	 -0.09637	  1.15878	 -0.04609	  1.27122	705.68799	 24.60	
 20.400	-58.396	  1.00607	  0.84257	  0.11023	 -0.07383	  1.12530	 -0.04542	  1.27095	705.71997	 24.60	
 20.410	-53.489	  1.00690	  0.89985	  0.06815	 -0.04847	  1.08783	 -0.04654	  1.27067	705.64398	 24.60	
 20.408	-48.628	  1.00463	  0.95085	  0.02987	 -0.02024	  1.04264	 -0.04557	  1.26766	705.58197	 24.60	
 20.396	-43.773	  1.01086	  1.00509	 -0.00155	  0.01418	  1.00045	 -0.04724	  1.27365	705.59003	 24.60	
 20.392	-38.938	  1.00928	  1.04867	 -0.03227	  0.04965	  0.94778	 -0.04608	  1.27014	705.78998	 24.60	
 20.397	-34.097	  1.01271	  1.09332	 -0.05893	  0.08914	  0.89657	 -0.04513	  1.27288	705.66302	 24.60	
 20.405	-29.165	  1.01338	  1.12973	 -0.08205	  0.13252	  0.84002	 -0.04540	  1.27312	705.69598	 24.60	
 20.401	-24.295	  1.01343	  1.16166	 -0.10103	  0.17868	  0.78110	 -0.04402	  1.27128	705.60999	 24.60	
 20.392	-19.504	  1.01308	  1.18481	 -0.11582	  0.22810	  0.72071	 -0.04175	  1.26952	705.60999	 24.60	
 20.410	-14.577	  1.01273	  1.20480	 -0.12858	  0.27977	  0.65953	 -0.04228	  1.26860	705.69598	 24.60	
 20.407	 -9.736	  1.01462	  1.22044	 -0.13646	  0.33494	  0.59902	 -0.03977	  1.26895	705.64398	 24.60	
 20.401	 -4.847	  1.01594	  1.23096	 -0.14204	  0.39192	  0.53983	 -0.03968	  1.26965	705.65698	 24.60	
 20.400	  0.000	  1.01681	  1.23566	 -0.14308	  0.45106	  0.48069	 -0.04017	  1.27068	705.59900	 24.60	
 20.401	  4.847	  1.02055	  1.23854	 -0.14233	  0.51274	  0.42322	 -0.03948	  1.27603	705.60303	 24.60	
 20.407	  9.736	  1.01754	  1.22761	 -0.13630	  0.57219	  0.36560	 -0.03990	  1.27100	705.64801	 24.60	
 20.410	 14.577	  1.01887	  1.21660	 -0.12638	  0.63409	  0.31376	 -0.03833	  1.27176	705.56097	 24.60	
 20.392	 19.504	  1.02111	  1.20060	 -0.11236	  0.69809	  0.26209	 -0.04018	  1.27394	705.60303	 24.60	
 20.401	 24.295	  1.02014	  1.17662	 -0.09575	  0.75639	  0.21536	 -0.04197	  1.27198	705.60602	 24.60	
 20.405	 29.165	  1.01891	  1.14603	 -0.07551	  0.81505	  0.16947	 -0.04284	  1.26949	705.57501	 24.60	
 20.397	 34.097	  1.02254	  1.11469	 -0.05146	  0.87596	  0.12654	 -0.04670	  1.27337	705.59497	 24.60	
 20.392	 38.938	  1.01953	  1.07199	 -0.02418	  0.92694	  0.08773	 -0.04672	  1.26917	705.66803	 24.60	
 20.396	 43.773	  1.02492	  1.03384	  0.00662	  0.98172	  0.05472	 -0.04920	  1.27334	705.69897	 24.60	
 20.408	 48.628	  1.01844	  0.98030	  0.04014	  1.02419	  0.02116	 -0.04611	  1.26658	705.65997	 24.60	
 20.410	 53.489	  1.01973	  0.92909	  0.07795	  1.06916	 -0.00749	 -0.05026	  1.26740	705.69897	 24.60	
 20.400	 58.396	  1.02384	  0.87727	  0.11994	  1.11190	 -0.03249	 -0.04888	  1.27143	705.59802	 24.60	
 20.403	 63.259	  1.02511	  0.82055	  0.16442	  1.14496	 -0.05302	 -0.05203	  1.27184	705.76703	 24.50	
 20.413	 68.100	  1.02491	  0.76231	  0.21217	  1.17229	 -0.06939	 -0.04937	  1.27008	705.58099	 24.50	
 20.398	 72.996	  1.02883	  0.70440	  0.26520	  1.19820	 -0.08210	 -0.05201	  1.27406	705.64001	 24.50	
 20.394	 77.868	  1.02879	  0.64206	  0.31938	  1.21534	 -0.09330	 -0.05152	  1.27264	705.77197	 24.50	
 20.403	 82.668	  1.02655	  0.58067	  0.37465	  1.22473	 -0.10037	 -0.05023	  1.27087	705.71301	 24.50	
 20.392	 87.560	  1.02940	  0.52204	  0.43477	  1.23148	 -0.10126	 -0.05240	  1.27232	705.68298	 24.50	
 20.392	 92.440	  1.03031	  0.46263	  0.49654	  1.23053	 -0.09820	 -0.05009	  1.27174	705.65503	 24.50	
 20.403	 97.332	  1.03249	  0.40510	  0.55799	  1.22838	 -0.09561	 -0.05003	  1.27440	705.81403	 24.50	
 20.394	102.132	  1.02798	  0.34715	  0.61670	  1.21196	 -0.08786	 -0.04714	  1.26761	705.78900	 24.50	
 20.398	107.004	  1.02875	  0.29446	  0.67810	  1.19605	 -0.07665	 -0.04909	  1.26887	705.73901	 24.50	
 20.413	111.900	  1.03147	  0.24281	  0.74153	  1.17804	 -0.06283	 -0.04620	  1.27229	705.67499	 24.50	
 20.403	116.741	  1.03170	  0.19557	  0.80086	  1.15041	 -0.04409	 -0.05105	  1.27207	705.65399	 24.50	
 20.400	121.604	  1.03308	  0.15077	  0.86010	  1.11870	 -0.02276	 -0.05267	  1.27307	705.60999	 24.50	
 20.410	126.511	  1.03022	  0.10673	  0.91391	  1.07903	  0.00084	 -0.05526	  1.27131	705.63702	 24.50	
 20.408	131.372	  1.03442	  0.06967	  0.97020	  1.03832	  0.03162	 -0.05554	  1.27487	705.62903	 24.50	
 20.396	136.227	  1.02981	  0.03501	  1.01524	  0.98632	  0.06433	 -0.05266	  1.26899	705.67102	 24.50	
 20.392	141.062	  1.03077	  0.00251	  1.06133	  0.93834	  0.09848	 -0.05392	  1.27263	705.59198	 24.50	
 20.397	145.903	  1.03149	 -0.02694	  1.10386	  0.88564	  0.13655	 -0.05504	  1.27418	705.64801	 24.50	
 20.405	150.835	  1.03135	 -0.05238	  1.14079	  0.82709	  0.18087	 -0.05303	  1.27589	705.61499	 24.50	
 20.401	155.705	  1.02471	 -0.07273	  1.16344	  0.76293	  0.22516	 -0.05414	  1.26723	705.63702	 24.50	
 20.392	160.496	  1.02615	 -0.08947	  1.18913	  0.70557	  0.27293	 -0.05699	  1.26952	705.74799	 24.50	
 20.410	165.423	  1.02577	 -0.10305	  1.20886	  0.64352	  0.32657	 -0.05380	  1.27059	705.65698	 24.50	
 20.407	170.264	  1.02429	 -0.11303	  1.22134	  0.58120	  0.38050	 -0.05605	  1.27018	705.55103	 24.50	
 20.401	175.153	  1.02548	 -0.12042	  1.23095	  0.52114	  0.43674	 -0.05579	  1.27289	705.66302	 24.50	
  0.141	 45.000	  1.27945	  0.70627	  0.68786	  0.70027	  0.71373	  0.00475	  1.27000	705.58398	 24.50	
  4.001	128.691	  1.27399	  0.60608	  0.77046	  0.79007	  0.60502	  0.00174	  1.26652	705.57599	 24.50	
  4.002	 76.995	  1.27687	  0.72700	  0.64835	  0.82078	  0.58219	  0.00257	  1.27071	705.55298	 24.50	
  4.002	 25.892	  1.27362	  0.82509	  0.55501	  0.73800	  0.64729	  0.00074	  1.26765	705.75800	 24.50	
  4.002	-25.892	  1.27693	  0.82545	  0.55498	  0.61358	  0.77480	 -0.00123	  1.27213	705.51599	 24.50	
  4.002	-76.995	  1.27552	  0.72199	  0.64531	  0.54299	  0.85667	 -0.00202	  1.27189	705.57001	 24.50	
  4.001	-128.691	  1.27734	  0.60228	  0.77166	  0.56908	  0.82874	  0.00004	  1.27322	705.58398	 24.40	
  4.000	180.000	  1.27532	  0.55610	  0.82894	  0.67537	  0.71324	  0.00223	  1.26960	705.59198	 24.40	
  8.000	180.000	  1.24713	  0.38901	  0.95793	  0.64573	  0.68368	 -0.01274	  1.26586	705.53900	 24.40	
  7.991	-152.370	  1.24770	  0.41355	  0.92323	  0.51506	  0.82129	 -0.01361	  1.26870	705.48297	 24.40	
  7.997	-124.550	  1.24829	  0.49536	  0.82275	  0.41686	  0.93447	 -0.01727	  1.27116	705.56702	 24.40	
  8.006	-96.837	  1.24699	  0.62048	  0.68357	  0.37025	  0.98857	 -0.02069	  1.27218	705.50500	 24.40	
  7.988	-69.228	  1.24595	  0.76199	  0.54548	  0.38742	  0.96665	 -0.02135	  1.27046	705.53101	 24.40	
  7.997	-41.563	  1.24780	  0.88648	  0.43856	  0.45838	  0.88114	 -0.02056	  1.27118	705.60901	 24.40	
  8.008	-13.821	  1.25125	  0.96362	  0.37987	  0.57587	  0.75152	 -0.01800	  1.27228	705.55298	 24.40	
  8.008	 13.821	  1.25256	  0.96624	  0.38065	  0.71719	  0.61122	 -0.01863	  1.27156	705.63702	 24.40	
  7.997	 41.563	  1.25173	  0.89673	  0.44069	  0.84822	  0.49667	 -0.01347	  1.26935	705.61798	 24.40	
  7.988	 69.228	  1.25458	  0.77658	  0.55088	  0.93799	  0.42845	 -0.01273	  1.27059	705.56702	 24.40	
  8.006	 96.837	  1.25281	  0.63421	  0.68780	  0.95584	  0.41431	 -0.01265	  1.27006	705.55798	 24.40	
  7.997	124.550	  1.25105	  0.50809	  0.82273	  0.89996	  0.45793	 -0.01212	  1.26691	705.55298	 24.40	
  7.991	152.370	  1.25404	  0.42341	  0.92686	  0.78979	  0.55565	 -0.01306	  1.27121	705.54498	 24.40	
 12.009	161.059	  1.20264	  0.23890	  1.04945	  0.74871	  0.50179	 -0.03358	  1.26954	705.45801	 24.40	
 12.013	142.081	  1.20605	  0.30034	  0.97466	  0.88688	  0.38506	 -0.03494	  1.27090	705.60602	 24.40	
 12.006	123.113	  1.20743	  0.39667	  0.85827	  0.99286	  0.30097	 -0.03426	  1.27086	705.61298	 24.40	
 12.007	104.200	  1.20472	  0.51972	  0.71665	  1.05687	  0.24938	 -0.03624	  1.26949	705.49200	 24.40	
 11.989	 85.301	  1.20112	  0.66133	  0.56806	  1.06480	  0.23962	 -0.03414	  1.26617	705.50500	 24.30	
 12.013	 66.294	  1.20343	  0.80869	  0.43434	  1.02919	  0.26752	 -0.03514	  1.27067	705.64099	 24.30	
 12.012	 47.388	  1.20487	  0.93795	  0.32227	  0.94154	  0.33228	 -0.03791	  1.27365	705.56201	 24.30	
 11.990	 28.440	  1.20530	  1.03362	  0.24560	  0.81946	  0.43359	 -0.03613	  1.27571	705.66302	 24.30	
 11.991	  9.464	  1.20296	  1.08137	  0.20517	  0.67375	  0.56097	 -0.04025	  1.27443	705.64801	 24.30	
 11.991	 -9.464	  1.19619	  1.07315	  0.20403	  0.52573	  0.70147	 -0.03875	  1.26824	705.65503	 24.30	
 11.990	-28.440	  1.19816	  1.02135	  0.24214	  0.39674	  0.84623	 -0.04117	  1.27409	705.60901	 24.30	
 12.012	-47.388	  1.19612	  0.92143	  0.31840	  0.29362	  0.96963	 -0.04390	  1.27349	705.58398	 24.30	
 12.013	-66.294	  1.18798	  0.78508	  0.42638	  0.22423	  1.05111	 -0.04383	  1.26709	705.59802	 24.30	
 11.989	-85.301	  1.19396	  0.64221	  0.56458	  0.19813	  1.09454	 -0.04558	  1.27197	705.58099	 24.30	
 12.007	-104.200	  1.18973	  0.49814	  0.71059	  0.20714	  1.08029	 -0.04264	  1.26800	705.72498	 24.30	
 12.006	-123.113	  1.18740	  0.37591	  0.84880	  0.25497	  1.01681	 -0.03787	  1.26434	705.66302	 24.30	
 12.013	-142.081	  1.19449	  0.28723	  0.96849	  0.34299	  0.91634	 -0.03671	  1.26960	705.63202	 24.30	
 12.009	-161.059	  1.18991	  0.23090	  1.03996	  0.45878	  0.77823	 -0.03417	  1.26217	705.79797	 24.30	
 16.000	180.000	  1.12392	  0.05897	  1.15649	  0.54288	  0.57961	 -0.05607	  1.26501	705.67102	 24.30	
 15.990	-165.604	  1.12636	  0.06770	  1.14197	  0.40675	  0.72324	 -0.05804	  1.27152	705.84601	 24.30	
 16.002	-151.165	  1.12382	  0.10918	  1.08080	  0.28554	  0.86357	 -0.05896	  1.27188	705.68799	 24.30	
 16.002	-136.836	  1.12288	  0.17453	  0.98841	  0.18710	  0.98898	 -0.05686	  1.27310	705.73901	 24.30	
 15.995	-122.439	  1.12191	  0.26549	  0.86659	  0.11274	  1.08723	 -0.05891	  1.27509	705.74701	 24.20	
 15.993	-107.966	  1.11922	  0.37939	  0.72596	  0.06428	  1.15198	 -0.05946	  1.27379	705.53003	 24.20	
 16.005	-93.629	  1.11523	  0.50777	  0.57966	  0.04076	  1.17628	 -0.05869	  1.26981	705.63397	 24.20	
 15.992	-79.234	  1.11857	  0.65361	  0.44023	  0.04854	  1.16831	 -0.05686	  1.27405	705.67102	 24.20	
 16.009	-64.774	  1.11910	  0.79725	  0.31214	  0.08019	  1.11966	 -0.05553	  1.27327	705.70801	 24.20	
 15.997	-50.364	  1.12123	  0.93091	  0.20409	  0.13911	  1.03479	 -0.05667	  1.27437	705.77197	 24.20	
 15.997	-36.045	  1.12410	  1.04299	  0.12243	  0.22593	  0.92130	 -0.05397	  1.27590	705.65698	 24.20	
 16.000	-21.597	  1.12436	  1.12126	  0.07050	  0.33857	  0.78608	 -0.05124	  1.27277	705.61499	 24.20	
 16.003	 -7.169	  1.12806	  1.16631	  0.03949	  0.46975	  0.64086	 -0.04993	  1.27519	705.73602	 24.20	
 16.003	  7.169	  1.12924	  1.16878	  0.04199	  0.61347	  0.50068	 -0.05178	  1.27399	705.71899	 24.20	
 16.000	 21.597	  1.13142	  1.13319	  0.07448	  0.76023	  0.37495	 -0.05197	  1.27446	705.62299	 24.20	
 15.997	 36.045	  1.13205	  1.05970	  0.12937	  0.89641	  0.26525	 -0.05124	  1.27366	705.69598	 24.20	
 15.997	 50.364	  1.13155	  0.95461	  0.20733	  1.01280	  0.17519	 -0.05533	  1.27311	705.57501	 24.20	
 16.009	 64.774	  1.13311	  0.82599	  0.31143	  1.09953	  0.11290	 -0.05453	  1.27333	705.77802	 24.20	
 15.992	 79.234	  1.13291	  0.67981	  0.44160	  1.14848	  0.08146	 -0.05571	  1.27015	705.59802	 24.20	
 16.005	 93.629	  1.13406	  0.53617	  0.58589	  1.15956	  0.07810	 -0.05448	  1.27074	705.67499	 24.20	
 15.993	107.966	  1.13207	  0.39930	  0.72871	  1.12885	  0.09602	 -0.05424	  1.26894	705.66302	 24.20	
 15.995	122.439	  1.13542	  0.28262	  0.87242	  1.06155	  0.14915	 -0.05705	  1.27040	705.60699	 24.20	
 16.002	136.836	  1.13557	  0.18705	  0.99485	  0.96129	  0.22269	 -0.05552	  1.27176	705.62598	 24.20	
 16.002	151.165	  1.13421	  0.12004	  1.08625	  0.83419	  0.32471	 -0.05475	  1.27083	705.67102	 24.20	
 15.990	165.604	  1.13216	  0.07424	  1.14456	  0.69121	  0.44492	 -0.05535	  1.27155	705.80402	 24.20	
 20.003	168.362	  1.03797	 -0.09026	  1.21364	  0.61346	  0.37160	 -0.05690	  1.27218	705.66498	 24.20	
 20.008	156.764	  1.03796	 -0.05854	  1.16837	  0.75586	  0.24966	 -0.05605	  1.27004	705.77197	 24.20	
 20.000	145.147	  1.04383	 -0.00407	  1.09616	  0.89616	  0.14638	 -0.05183	  1.27508	705.64001	 24.20	
 19.995	133.545	  1.04045	  0.06809	  0.98880	  1.01152	  0.06131	 -0.05575	  1.26926	705.70001	 24.20	
 20.009	121.926	  1.04270	  0.16110	  0.86560	  1.11319	 -0.00586	 -0.05202	  1.27330	705.71301	 24.20	
 20.005	110.327	  1.03921	  0.27096	  0.72508	  1.17690	 -0.04973	 -0.04887	  1.26899	705.63702	 24.20	
 19.989	 98.733	  1.04282	  0.39876	  0.58374	  1.21854	 -0.07601	 -0.04835	  1.27326	705.60602	 24.20	
 19.999	 87.075	  1.03711	  0.53479	  0.43767	  1.22015	 -0.08172	 -0.05268	  1.26764	705.55402	 24.20	
 19.992	 75.457	  1.03975	  0.67823	  0.30700	  1.20056	 -0.06726	 -0.05320	  1.27098	705.62903	 24.20	
 20.009	 63.844	  1.03793	  0.81765	  0.18769	  1.14626	 -0.03531	 -0.05088	  1.27306	705.72400	 24.20	
 19.989	 52.269	  1.03398	  0.94461	  0.08514	  1.05760	  0.01722	 -0.05048	  1.26995	705.61700	 24.20	
 19.999	 40.602	  1.03325	  1.05720	  0.00431	  0.94629	  0.09229	 -0.05083	  1.27011	705.46600	 24.20	
 20.004	 29.051	  1.03164	  1.14476	 -0.05887	  0.81691	  0.18445	 -0.04261	  1.27101	705.55798	 24.10	
 20.005	 17.433	  1.03178	  1.20388	 -0.10105	  0.67672	  0.29531	 -0.04170	  1.27347	705.53400	 24.10	
 20.006	  5.780	  1.02828	  1.22749	 -0.12113	  0.53124	  0.42162	 -0.03992	  1.26999	705.64600	 24.10	
 20.006	 -5.780	  1.02346	  1.22031	 -0.12120	  0.39114	  0.55681	 -0.04058	  1.26535	705.71301	 24.10	
 20.005	-17.433	  1.02623	  1.19180	 -0.10355	  0.26357	  0.70079	 -0.04262	  1.27034	705.67999	 24.10	
 20.004	-29.051	  1.02226	  1.12715	 -0.06788	  0.14566	  0.83885	 -0.04474	  1.27133	705.68500	 24.10	
 19.999	-40.602	  1.01993	  1.03141	 -0.00385	  0.05476	  0.96398	 -0.04850	  1.26850	705.71100	 24.10	
 19.989	-52.269	  1.01851	  0.91479	  0.07445	 -0.02492	  1.07495	 -0.04358	  1.27205	705.56097	 24.10	
 20.009	-63.844	  1.02053	  0.78401	  0.17574	 -0.07871	  1.16096	 -0.04626	  1.27518	705.56702	 24.10	
 19.992	-75.457	  1.01723	  0.63928	  0.29442	 -0.11291	  1.21155	 -0.04361	  1.27144	705.52002	 24.10	
 19.999	-87.075	  1.01534	  0.49518	  0.42711	 -0.12858	  1.23365	 -0.04467	  1.26947	705.55902	 24.10	
 19.989	-98.733	  1.01324	  0.35767	  0.56763	 -0.12332	  1.22617	 -0.04953	  1.26801	705.59497	 24.10	
 20.005	-110.327	  1.01173	  0.23322	  0.70907	 -0.10053	  1.18892	 -0.05452	  1.26663	705.68597	 24.10	
 20.009	-121.926	  1.01725	  0.12758	  0.85086	 -0.05341	  1.12639	 -0.05634	  1.27031	705.71600	 24.10	
 19.995	-133.545	  1.01977	  0.04007	  0.97686	  0.01426	  1.03130	 -0.05691	  1.27072	705.67902	 24.10	
 20.000	-145.147	  1.02587	 -0.02660	  1.08620	  0.10321	  0.91626	 -0.05817	  1.27386	705.65399	 24.10	
 20.008	-156.764	  1.02725	 -0.07205	  1.16302	  0.20986	  0.78339	 -0.05498	  1.27221	705.52301	 24.10	
 20.003	-168.362	  1.02892	 -0.09824	  1.20846	  0.33158	  0.64230	 -0.05496	  1.26915	705.64398	 24.10	
 20.000	180.000	  1.03111	 -0.10467	  1.22318	  0.46893	  0.50160	 -0.05565	  1.26799	705.43201	 24.10	
