FileType=PCF
NHL=14
Date=10/23/18	09:34:51
Facility=APL
Serial=16328-17
Customer=NASA
NP=6
Mach=0.050000
Calibration=1:1
CalPts=490
TstPts=95
PortNumbering=AP Standard
Units=Torr C m/s kg/m^3 deg mm 
Theta[deg]	Phi[deg]	P1[Torr]	P2[Torr]	P3[Torr]	P4[Torr]	P5[Torr]	P6[Torr]	Pt[Torr]	Ps[Abs,Torr]	Ts[C]	
  0.000	  0.000	  1.22736	  0.65964	  0.63940	  0.65377	  0.65244	  0.00476	  1.22008	710.99200	 12.80	
  1.691	128.401	  1.23057	  0.63391	  0.66464	  0.68480	  0.62365	  0.00520	  1.22224	710.98602	 12.80	
  1.692	 77.194	  1.22608	  0.67028	  0.62272	  0.69222	  0.60725	  0.00474	  1.21883	711.01099	 12.80	
  1.699	 26.182	  1.22553	  0.70912	  0.58393	  0.66293	  0.62753	  0.00397	  1.21924	711.01001	 12.80	
  1.699	-26.182	  1.22432	  0.70967	  0.57797	  0.61580	  0.67460	  0.00190	  1.21903	711.00000	 12.80	
  1.692	-77.194	  1.22393	  0.66922	  0.61315	  0.58870	  0.70737	  0.00180	  1.21800	710.97601	 12.80	
  1.691	-128.401	  1.22627	  0.62586	  0.66060	  0.60362	  0.69719	  0.00300	  1.21941	711.00299	 12.80	
  1.700	180.000	  1.22507	  0.61137	  0.68198	  0.64643	  0.65312	  0.00428	  1.21711	710.97900	 12.80	
  3.400	180.000	  1.22591	  0.54541	  0.74470	  0.63793	  0.65039	  0.00179	  1.21914	711.06500	 12.80	
  3.388	-152.325	  1.22526	  0.55511	  0.72868	  0.58404	  0.70671	  0.00022	  1.21968	711.06097	 12.80	
  3.397	-124.529	  1.22103	  0.58718	  0.68558	  0.54086	  0.74865	 -0.00082	  1.21715	711.01099	 12.80	
  3.399	-96.763	  1.22432	  0.64004	  0.63285	  0.52221	  0.77211	 -0.00216	  1.22100	711.01099	 12.80	
  3.394	-69.283	  1.21839	  0.69328	  0.57589	  0.52599	  0.75953	 -0.00301	  1.21519	710.99402	 12.80	
  3.400	-41.398	  1.21677	  0.74180	  0.53185	  0.55472	  0.72349	 -0.00219	  1.21383	711.01300	 12.80	
  3.401	-14.021	  1.22136	  0.77238	  0.51131	  0.60332	  0.67486	 -0.00058	  1.21758	711.08899	 12.80	
  3.401	 14.021	  1.22245	  0.77368	  0.51430	  0.65989	  0.61965	  0.00091	  1.21778	711.06097	 12.80	
  3.400	 41.398	  1.22178	  0.74593	  0.53775	  0.71110	  0.57272	  0.00161	  1.21667	711.05103	 12.90	
  3.394	 69.283	  1.22719	  0.70022	  0.58491	  0.74847	  0.54749	  0.00277	  1.22131	711.02600	 12.80	
  3.399	 96.763	  1.22825	  0.64463	  0.63897	  0.75738	  0.54391	  0.00149	  1.22103	711.05603	 12.90	
  3.397	124.529	  1.22775	  0.59565	  0.69107	  0.73599	  0.56343	  0.00238	  1.22058	711.11798	 12.90	
  3.388	152.325	  1.23086	  0.56388	  0.73193	  0.69567	  0.60080	  0.00246	  1.22422	711.00201	 12.90	
  5.099	161.165	  1.22399	  0.49077	  0.79458	  0.69093	  0.58817	 -0.00289	  1.22086	711.03198	 12.90	
  5.109	142.013	  1.22163	  0.51503	  0.76387	  0.74349	  0.53800	 -0.00213	  1.21896	711.05902	 12.90	
  5.095	123.033	  1.22451	  0.55651	  0.71911	  0.78764	  0.50262	 -0.00210	  1.22145	710.93799	 12.90	
  5.105	104.191	  1.22024	  0.60515	  0.66153	  0.80962	  0.47897	 -0.00203	  1.21850	710.97900	 12.90	
  5.093	 85.207	  1.21771	  0.66184	  0.60184	  0.81239	  0.47195	 -0.00188	  1.21568	711.01801	 12.90	
  5.104	 66.290	  1.21858	  0.72287	  0.54416	  0.79683	  0.48354	 -0.00191	  1.21775	711.04102	 12.90	
  5.094	 47.331	  1.21656	  0.77309	  0.49677	  0.75911	  0.51073	 -0.00319	  1.21676	710.99701	 12.90	
  5.089	 28.397	  1.21643	  0.81248	  0.46115	  0.70937	  0.55405	 -0.00448	  1.21878	710.97601	 12.90	
  5.096	  9.576	  1.21334	  0.83124	  0.44156	  0.65033	  0.60631	 -0.00517	  1.21691	710.95203	 12.90	
  5.096	 -9.576	  1.21009	  0.82790	  0.43890	  0.58863	  0.66504	 -0.00711	  1.21502	711.00800	 12.90	
  5.089	-28.397	  1.21152	  0.80825	  0.45602	  0.53545	  0.72395	 -0.00893	  1.21708	711.06097	 12.90	
  5.094	-47.331	  1.21232	  0.77114	  0.48674	  0.49119	  0.77514	 -0.00962	  1.21807	710.99200	 12.90	
  5.104	-66.290	  1.21210	  0.71767	  0.53471	  0.46204	  0.81136	 -0.01007	  1.21687	711.13202	 13.00	
  5.093	-85.207	  1.21311	  0.65831	  0.59275	  0.45195	  0.82906	 -0.00956	  1.21775	711.03497	 13.00	
  5.105	-104.191	  1.21362	  0.59909	  0.65369	  0.45679	  0.82504	 -0.00805	  1.21675	711.07202	 13.00	
  5.095	-123.033	  1.21600	  0.54789	  0.71180	  0.48173	  0.80011	 -0.00621	  1.21746	711.05603	 13.00	
  5.109	-142.013	  1.22183	  0.50932	  0.76183	  0.52150	  0.76154	 -0.00504	  1.22146	711.06500	 13.00	
  5.099	-161.165	  1.21748	  0.48205	  0.79141	  0.57080	  0.70214	 -0.00385	  1.21638	711.07501	 13.00	
  5.100	180.000	  1.21922	  0.47809	  0.80101	  0.62888	  0.64379	 -0.00286	  1.21624	711.02899	 13.00	
  6.800	180.000	  1.21160	  0.40915	  0.85887	  0.62117	  0.63408	 -0.00926	  1.21637	710.97803	 13.00	
  6.796	-166.229	  1.20790	  0.41082	  0.84937	  0.56050	  0.69191	 -0.00926	  1.21543	710.89502	 13.00	
  6.808	-152.311	  1.20663	  0.42699	  0.82667	  0.50690	  0.74827	 -0.00958	  1.21441	710.93701	 13.00	
  6.795	-138.383	  1.20791	  0.45675	  0.79136	  0.46064	  0.80104	 -0.01137	  1.21873	710.96997	 13.00	
  6.792	-124.591	  1.20650	  0.49711	  0.74257	  0.42326	  0.84196	 -0.01295	  1.21892	711.05701	 13.00	
  6.787	-110.754	  1.20049	  0.54412	  0.68351	  0.39405	  0.86713	 -0.01445	  1.21455	710.98901	 13.00	
  6.800	-96.985	  1.20231	  0.60141	  0.62457	  0.38052	  0.88376	 -0.01643	  1.21795	711.00800	 13.00	
  6.800	-83.015	  1.20111	  0.66032	  0.56516	  0.37855	  0.88222	 -0.01857	  1.21805	711.01300	 13.00	
  6.787	-69.246	  1.20105	  0.71980	  0.50916	  0.39085	  0.86601	 -0.01772	  1.21725	710.96802	 13.00	
  6.792	-55.409	  1.20121	  0.77493	  0.46054	  0.41609	  0.83592	 -0.01695	  1.21702	710.97302	 13.00	
  6.795	-41.617	  1.20137	  0.82267	  0.42056	  0.45148	  0.79395	 -0.01666	  1.21819	711.00800	 13.00	
  6.808	-27.689	  1.20010	  0.85728	  0.39034	  0.49692	  0.74171	 -0.01608	  1.21573	710.95203	 13.00	
  6.796	-13.771	  1.20129	  0.88225	  0.37208	  0.55018	  0.68574	 -0.01420	  1.21720	710.92902	 13.00	
  6.800	  0.000	  1.20140	  0.88988	  0.36769	  0.60914	  0.62588	 -0.01208	  1.21615	710.97601	 13.10	
  6.796	 13.771	  1.20017	  0.88184	  0.37515	  0.66694	  0.56802	 -0.01118	  1.21409	711.03198	 13.10	
  6.808	 27.689	  1.20452	  0.86279	  0.39521	  0.72568	  0.51724	 -0.01049	  1.21676	711.04303	 13.10	
  6.795	 41.617	  1.20428	  0.82612	  0.42607	  0.77752	  0.47069	 -0.00843	  1.21577	710.98602	 13.10	
  6.792	 55.409	  1.20892	  0.78184	  0.46907	  0.82240	  0.43829	 -0.00825	  1.21864	711.07300	 13.10	
  6.787	 69.246	  1.20859	  0.72591	  0.51949	  0.85205	  0.41377	 -0.00738	  1.21719	711.06097	 13.10	
  6.800	 83.015	  1.20697	  0.66649	  0.57381	  0.86624	  0.40174	 -0.00742	  1.21486	711.07599	 13.10	
  6.800	 96.985	  1.21048	  0.60994	  0.63417	  0.86904	  0.40500	 -0.00775	  1.21668	711.02698	 13.10	
  6.787	110.754	  1.20989	  0.55427	  0.69063	  0.85452	  0.41726	 -0.00873	  1.21591	711.06097	 13.10	
  6.792	124.591	  1.21195	  0.50398	  0.74741	  0.82683	  0.44179	 -0.00877	  1.21764	711.01801	 13.10	
  6.795	138.383	  1.21069	  0.46438	  0.79129	  0.78546	  0.47665	 -0.01027	  1.21639	711.00500	 13.10	
  6.808	152.311	  1.20931	  0.43378	  0.82617	  0.73484	  0.52191	 -0.00904	  1.21442	710.97302	 13.10	
  6.796	166.229	  1.20987	  0.41408	  0.85023	  0.67843	  0.57488	 -0.00879	  1.21576	710.99200	 13.10	
  8.491	168.704	  1.19628	  0.34100	  0.90460	  0.66616	  0.56011	 -0.01586	  1.21487	711.00800	 13.10	
  8.502	157.493	  1.20121	  0.35696	  0.89049	  0.72904	  0.50559	 -0.01598	  1.21996	711.01001	 13.10	
  8.494	146.194	  1.20001	  0.38395	  0.85750	  0.78348	  0.45509	 -0.01671	  1.21746	711.04102	 13.10	
  8.495	135.039	  1.19605	  0.41562	  0.81642	  0.82930	  0.41186	 -0.01627	  1.21390	710.96997	 13.10	
  8.487	123.723	  1.19744	  0.45910	  0.76692	  0.86948	  0.37740	 -0.01611	  1.21552	711.00201	 13.10	
  8.492	112.575	  1.19809	  0.50820	  0.71364	  0.90097	  0.35123	 -0.01620	  1.21723	710.96997	 13.10	
  8.510	101.220	  1.19345	  0.56343	  0.64978	  0.91607	  0.33419	 -0.01671	  1.21332	710.97900	 13.10	
  8.500	 90.000	  1.19664	  0.62336	  0.59220	  0.92464	  0.32852	 -0.01561	  1.21779	710.90802	 13.20	
  8.510	 78.780	  1.19126	  0.68218	  0.52902	  0.91511	  0.33044	 -0.01484	  1.21362	710.96997	 13.10	
  8.492	 67.425	  1.19238	  0.74429	  0.47196	  0.89385	  0.34666	 -0.01628	  1.21587	711.03497	 13.20	
  8.487	 56.277	  1.19297	  0.80006	  0.42330	  0.86402	  0.37158	 -0.01611	  1.21853	711.01099	 13.20	
  8.495	 44.961	  1.19042	  0.84708	  0.38046	  0.82070	  0.40459	 -0.01496	  1.21651	710.94000	 13.20	
  8.494	 33.806	  1.18544	  0.88536	  0.34238	  0.76855	  0.44411	 -0.01614	  1.21451	711.03400	 13.20	
  8.502	 22.507	  1.18701	  0.91807	  0.31785	  0.71287	  0.49585	 -0.01917	  1.21733	711.00000	 13.20	
  8.491	 11.296	  1.18516	  0.93547	  0.29946	  0.65272	  0.55044	 -0.01959	  1.21607	710.97900	 13.20	
  8.500	  0.000	  1.18204	  0.94090	  0.29086	  0.59040	  0.60849	 -0.02098	  1.21519	710.97803	 13.20	
  8.491	-11.296	  1.18469	  0.93481	  0.29670	  0.53207	  0.67028	 -0.02255	  1.21892	711.04303	 13.20	
  8.502	-22.507	  1.18809	  0.91874	  0.31232	  0.47740	  0.73326	 -0.02502	  1.22281	711.01099	 13.20	
  8.494	-33.806	  1.18107	  0.88173	  0.33456	  0.42504	  0.78479	 -0.02698	  1.21570	710.97601	 13.20	
  8.495	-44.961	  1.17862	  0.83895	  0.36875	  0.38221	  0.83257	 -0.02674	  1.21328	710.96802	 13.20	
  8.487	-56.277	  1.17994	  0.78957	  0.41110	  0.34814	  0.87629	 -0.02630	  1.21422	710.91400	 13.20	
  8.492	-67.425	  1.18448	  0.73677	  0.46339	  0.32507	  0.91092	 -0.02828	  1.21853	710.94000	 13.20	
  8.510	-78.780	  1.18192	  0.67511	  0.51838	  0.30965	  0.92999	 -0.02825	  1.21538	710.98102	 13.20	
  8.500	-90.000	  1.18215	  0.61410	  0.57709	  0.30509	  0.93681	 -0.02718	  1.21421	710.91101	 13.20	
  8.510	-101.220	  1.18562	  0.55606	  0.63979	  0.31183	  0.93432	 -0.02424	  1.21657	710.98401	 13.20	
  8.492	-112.575	  1.18809	  0.50091	  0.70269	  0.33133	  0.91510	 -0.02192	  1.21566	710.96802	 13.20	
  8.487	-123.723	  1.19009	  0.45324	  0.75771	  0.35842	  0.88569	 -0.02046	  1.21613	710.92700	 13.20	
  8.495	-135.039	  1.19264	  0.40993	  0.81100	  0.39364	  0.84595	 -0.01940	  1.21765	710.95697	 13.20	
  8.494	-146.194	  1.19605	  0.37868	  0.85340	  0.43979	  0.79860	 -0.01685	  1.21892	710.94598	 13.20	
  8.502	-157.493	  1.19076	  0.35138	  0.88130	  0.48816	  0.73750	 -0.01663	  1.21225	710.98901	 13.20	
  8.491	-168.704	  1.19477	  0.33821	  0.90393	  0.54541	  0.68098	 -0.01730	  1.21546	710.94800	 13.20	
  8.500	180.000	  1.19907	  0.33358	  0.91502	  0.60755	  0.62043	 -0.01717	  1.21919	710.97900	 13.20	
 10.200	180.000	  1.17826	  0.26030	  0.96157	  0.59030	  0.60240	 -0.02548	  1.21663	710.94897	 13.30	
 10.191	-170.497	  1.17769	  0.26413	  0.95552	  0.52962	  0.66557	 -0.02614	  1.21640	711.03198	 13.30	
 10.210	-161.034	  1.17700	  0.27605	  0.93916	  0.47128	  0.72680	 -0.02613	  1.21719	711.00500	 13.20	
 10.194	-151.526	  1.17627	  0.29646	  0.91148	  0.41727	  0.78548	 -0.02537	  1.21755	711.03699	 13.20	
 10.190	-142.105	  1.17474	  0.32491	  0.87412	  0.36924	  0.83947	 -0.02556	  1.21770	710.99500	 13.30	
 10.215	-132.646	  1.17123	  0.35990	  0.82608	  0.32489	  0.88610	 -0.02733	  1.21684	710.95203	 13.30	
 10.203	-123.092	  1.17189	  0.40433	  0.77532	  0.29063	  0.92653	 -0.03002	  1.21878	710.95697	 13.30	
 10.192	-113.678	  1.16731	  0.45290	  0.71644	  0.26522	  0.95300	 -0.03165	  1.21579	710.97601	 13.30	
 10.208	-104.249	  1.16438	  0.50703	  0.65369	  0.24555	  0.97313	 -0.03279	  1.21525	710.96802	 13.30	
 10.210	-94.801	  1.16368	  0.56490	  0.59261	  0.23440	  0.98275	 -0.03504	  1.21519	710.86298	 13.30	
 10.210	-85.199	  1.16272	  0.62741	  0.53025	  0.23367	  0.98240	 -0.03613	  1.21659	710.89203	 13.30	
 10.208	-75.751	  1.16267	  0.68868	  0.47195	  0.24183	  0.97064	 -0.03672	  1.21674	710.98602	 13.30	
 10.192	-66.322	  1.16104	  0.74950	  0.41492	  0.25689	  0.94773	 -0.03736	  1.21622	710.99500	 13.30	
 10.203	-56.908	  1.15803	  0.80261	  0.36548	  0.28191	  0.91442	 -0.03525	  1.21272	711.03998	 13.30	
 10.215	-47.354	  1.16148	  0.85858	  0.32171	  0.31532	  0.87718	 -0.03553	  1.21736	710.94897	 13.30	
 10.190	-37.895	  1.16267	  0.90314	  0.28714	  0.35656	  0.82934	 -0.03586	  1.21814	710.95398	 13.30	
 10.194	-28.474	  1.16571	  0.94236	  0.25811	  0.40410	  0.77647	 -0.03486	  1.22124	710.90002	 13.30	
 10.210	-18.966	  1.15838	  0.96209	  0.23811	  0.45510	  0.71408	 -0.03323	  1.21301	710.96399	 13.30	
 10.191	 -9.503	  1.16151	  0.98155	  0.22605	  0.51316	  0.65519	 -0.03021	  1.21595	710.93500	 13.30	
 10.200	  0.000	  1.16190	  0.98740	  0.22181	  0.57328	  0.59244	 -0.02921	  1.21525	710.85999	 13.30	
 10.191	  9.503	  1.16304	  0.98220	  0.22711	  0.63395	  0.53297	 -0.02885	  1.21496	710.82703	 13.30	
 10.210	 18.966	  1.16509	  0.96943	  0.24082	  0.69695	  0.47574	 -0.02800	  1.21609	710.82703	 13.30	
 10.194	 28.474	  1.16471	  0.94308	  0.26249	  0.75503	  0.42322	 -0.02500	  1.21412	710.90302	 13.30	
 10.190	 37.895	  1.16620	  0.90677	  0.29364	  0.80921	  0.37740	 -0.02359	  1.21326	710.95398	 13.30	
 10.215	 47.354	  1.17102	  0.86705	  0.33052	  0.86132	  0.33770	 -0.02369	  1.21779	710.80798	 13.30	
 10.203	 56.908	  1.17482	  0.81653	  0.37608	  0.90487	  0.30407	 -0.02401	  1.21981	710.92902	 13.30	
 10.192	 66.322	  1.17327	  0.75819	  0.42667	  0.93555	  0.27976	 -0.02438	  1.21607	710.84698	 13.30	
 10.208	 75.751	  1.17447	  0.69972	  0.48164	  0.95812	  0.26370	 -0.02385	  1.21649	710.89001	 13.30	
 10.210	 85.199	  1.17547	  0.63836	  0.53986	  0.97065	  0.25489	 -0.02506	  1.21596	710.95203	 13.30	
 10.210	 94.801	  1.17635	  0.57629	  0.60362	  0.97144	  0.25693	 -0.02535	  1.21545	710.88202	 13.30	
 10.208	104.249	  1.17765	  0.51862	  0.66462	  0.96111	  0.26711	 -0.02590	  1.21505	710.91400	 13.30	
 10.192	113.678	  1.17879	  0.46367	  0.72555	  0.94142	  0.28534	 -0.02569	  1.21558	710.89801	 13.30	
 10.203	123.092	  1.17948	  0.41282	  0.78168	  0.91106	  0.31065	 -0.02563	  1.21478	710.85199	 13.30	
 10.215	132.646	  1.18115	  0.36920	  0.83475	  0.87308	  0.34484	 -0.02562	  1.21706	711.01599	 13.40	
 10.190	142.105	  1.18300	  0.33330	  0.88001	  0.82714	  0.38638	 -0.02571	  1.21919	710.91901	 13.40	
 10.194	151.526	  1.17829	  0.30194	  0.91289	  0.76973	  0.43209	 -0.02567	  1.21492	711.03497	 13.40	
 10.210	161.034	  1.17648	  0.27832	  0.93828	  0.71043	  0.48437	 -0.02429	  1.21244	710.95599	 13.40	
 10.191	170.497	  1.17605	  0.26694	  0.95353	  0.65007	  0.54262	 -0.02448	  1.21244	710.93701	 13.40	
 11.899	171.783	  1.15704	  0.19496	  1.00238	  0.63283	  0.52473	 -0.03368	  1.21634	710.99200	 13.40	
 11.890	163.610	  1.15678	  0.20601	  0.98895	  0.69480	  0.46590	 -0.03328	  1.21481	710.91602	 13.40	
 11.889	155.445	  1.15550	  0.22375	  0.96484	  0.75357	  0.41108	 -0.03364	  1.21315	710.98700	 13.40	
 11.909	147.299	  1.15937	  0.24943	  0.93735	  0.81231	  0.36156	 -0.03460	  1.21754	710.88098	 13.40	
 11.902	139.148	  1.15763	  0.28196	  0.89514	  0.86283	  0.31619	 -0.03478	  1.21587	710.87598	 13.40	
 11.894	130.867	  1.16012	  0.32137	  0.84865	  0.91163	  0.27744	 -0.03468	  1.21825	710.87500	 13.40	
 11.897	122.732	  1.15657	  0.36499	  0.79415	  0.94726	  0.24444	 -0.03539	  1.21569	710.93701	 13.40	
 11.903	114.597	  1.15515	  0.41330	  0.73818	  0.97775	  0.21844	 -0.03571	  1.21495	710.88702	 13.40	
 11.893	106.346	  1.15387	  0.46897	  0.67600	  0.99797	  0.20063	 -0.03568	  1.21352	710.83301	 13.40	
 11.892	 98.155	  1.14879	  0.52581	  0.61251	  1.00809	  0.18930	 -0.03414	  1.20923	711.00299	 13.40	
 11.900	 90.000	  1.15506	  0.58799	  0.55521	  1.01808	  0.18521	 -0.03416	  1.21645	710.92700	 13.40	
 11.892	 81.845	  1.14732	  0.64540	  0.49102	  1.00660	  0.18540	 -0.03310	  1.20981	710.92902	 13.40	
 11.893	 73.654	  1.14661	  0.70843	  0.43206	  0.99183	  0.19578	 -0.03368	  1.21195	710.87598	 13.40	
 11.903	 65.403	  1.14881	  0.76976	  0.37884	  0.97043	  0.21372	 -0.03415	  1.21589	710.84003	 13.40	
 11.897	 57.268	  1.14657	  0.82477	  0.32886	  0.93777	  0.23774	 -0.03256	  1.21520	710.84698	 13.40	
 11.894	 49.133	  1.14207	  0.87554	  0.28265	  0.89452	  0.26818	 -0.03210	  1.21284	710.91302	 13.40	
 11.902	 40.852	  1.14321	  0.92255	  0.24439	  0.84794	  0.30637	 -0.03240	  1.21543	710.87598	 13.40	
 11.909	 32.701	  1.14153	  0.96089	  0.21099	  0.79410	  0.34962	 -0.03398	  1.21565	710.85901	 13.40	
 11.889	 24.555	  1.13911	  0.99136	  0.18416	  0.73593	  0.39826	 -0.03533	  1.21401	710.81702	 13.40	
 11.890	 16.390	  1.14230	  1.01689	  0.16661	  0.67777	  0.45502	 -0.03742	  1.21918	710.89203	 13.40	
 11.899	  8.217	  1.13626	  1.02596	  0.15399	  0.61349	  0.50995	 -0.03917	  1.21499	710.86499	 13.40	
 11.900	  0.000	  1.13816	  1.03287	  0.14982	  0.55338	  0.57163	 -0.03911	  1.21769	710.84698	 13.40	
 11.899	 -8.217	  1.13409	  1.02578	  0.15070	  0.49114	  0.63137	 -0.03980	  1.21546	710.86298	 13.40	
 11.890	-16.390	  1.13678	  1.01307	  0.16315	  0.43457	  0.69487	 -0.04221	  1.21848	710.92200	 13.40	
 11.889	-24.555	  1.13274	  0.98772	  0.17740	  0.38008	  0.75155	 -0.04357	  1.21483	710.91602	 13.40	
 11.909	-32.701	  1.13533	  0.95722	  0.20223	  0.32989	  0.81100	 -0.04632	  1.21810	710.85999	 13.40	
 11.902	-40.852	  1.13161	  0.91541	  0.23153	  0.28502	  0.85988	 -0.04646	  1.21441	710.84100	 13.40	
 11.894	-49.133	  1.13172	  0.86655	  0.27071	  0.24666	  0.90841	 -0.04506	  1.21422	710.88702	 13.40	
 11.897	-57.268	  1.13240	  0.81515	  0.31492	  0.21530	  0.94955	 -0.04538	  1.21445	710.83600	 13.50	
 11.903	-65.403	  1.13536	  0.75832	  0.36602	  0.19082	  0.98437	 -0.04599	  1.21714	710.82703	 13.50	
 11.893	-73.654	  1.13240	  0.69614	  0.41989	  0.17438	  1.00530	 -0.04668	  1.21264	710.86499	 13.50	
 11.892	-81.845	  1.13296	  0.63550	  0.47796	  0.16528	  1.02009	 -0.04608	  1.21200	710.90802	 13.50	
 11.900	-90.000	  1.13666	  0.57529	  0.53958	  0.16244	  1.02804	 -0.04441	  1.21428	710.81702	 13.50	
 11.892	-98.155	  1.13830	  0.51637	  0.60231	  0.16794	  1.02503	 -0.04309	  1.21413	710.88397	 13.50	
 11.893	-106.346	  1.14148	  0.45855	  0.66584	  0.17889	  1.01386	 -0.04082	  1.21545	710.84399	 13.50	
 11.903	-114.597	  1.14370	  0.40421	  0.72744	  0.20024	  0.99076	 -0.04012	  1.21617	710.84900	 13.50	
 11.897	-122.732	  1.14212	  0.35536	  0.78210	  0.22609	  0.95785	 -0.03853	  1.21234	710.81097	 13.50	
 11.894	-130.867	  1.14740	  0.31156	  0.83949	  0.25928	  0.92139	 -0.03632	  1.21602	710.85901	 13.50	
 11.902	-139.148	  1.14791	  0.27408	  0.88586	  0.29832	  0.87511	 -0.03528	  1.21550	710.81299	 13.50	
 11.909	-147.299	  1.14814	  0.24227	  0.92592	  0.34345	  0.82265	 -0.03396	  1.21438	710.91302	 13.50	
 11.889	-155.445	  1.15194	  0.22001	  0.96019	  0.39546	  0.76834	 -0.03347	  1.21582	710.85498	 13.50	
 11.890	-163.610	  1.15037	  0.20240	  0.98229	  0.45059	  0.70548	 -0.03469	  1.21243	710.87903	 13.50	
 11.899	-171.783	  1.15065	  0.19039	  0.99745	  0.50858	  0.64362	 -0.03531	  1.21220	710.90503	 13.50	
 11.900	180.000	  1.15189	  0.18821	  1.00346	  0.56935	  0.58176	 -0.03514	  1.21263	710.82397	 13.50	
 13.600	180.000	  1.13005	  0.11709	  1.04888	  0.55041	  0.56243	 -0.04375	  1.21727	710.78497	 13.50	
 13.608	-172.853	  1.12604	  0.11961	  1.04229	  0.48823	  0.62313	 -0.04503	  1.21527	710.76801	 13.50	
 13.611	-165.583	  1.12314	  0.12537	  1.02836	  0.42711	  0.68433	 -0.04321	  1.21410	710.89203	 13.50	
 13.601	-158.353	  1.12333	  0.14193	  1.00695	  0.37299	  0.74511	 -0.04256	  1.21521	710.91400	 13.50	
 13.609	-151.210	  1.12003	  0.16347	  0.97666	  0.32083	  0.80288	 -0.04122	  1.21354	710.84003	 13.50	
 13.611	-143.999	  1.11937	  0.19003	  0.93943	  0.27068	  0.85935	 -0.04195	  1.21478	710.87598	 13.50	
 13.601	-136.825	  1.11774	  0.22204	  0.89702	  0.22954	  0.90771	 -0.04280	  1.21396	710.87299	 13.50	
 13.596	-129.640	  1.11697	  0.26182	  0.84761	  0.19232	  0.95343	 -0.04475	  1.21604	710.84100	 13.50	
 13.611	-122.431	  1.11300	  0.30462	  0.79136	  0.15998	  0.98929	 -0.04654	  1.21272	710.81702	 13.50	
 13.604	-115.211	  1.11119	  0.35298	  0.73301	  0.13377	  1.02016	 -0.04755	  1.21257	710.86798	 13.50	
 13.595	-108.042	  1.10885	  0.40517	  0.67225	  0.11273	  1.04277	 -0.04894	  1.21293	710.85999	 13.50	
 13.607	-100.793	  1.11144	  0.46215	  0.61176	  0.09912	  1.06111	 -0.05009	  1.21682	710.70001	 13.50	
 13.601	-93.617	  1.11008	  0.52147	  0.54883	  0.09160	  1.06888	 -0.04923	  1.21652	710.79797	 13.50	
 13.601	-86.383	  1.10613	  0.58106	  0.48646	  0.09024	  1.06465	 -0.05182	  1.21425	710.84900	 13.50	
 13.607	-79.207	  1.10509	  0.64187	  0.42749	  0.09437	  1.05661	 -0.05301	  1.21586	710.93701	 13.60	
 13.595	-71.958	  1.10168	  0.70376	  0.36680	  0.10678	  1.03490	 -0.05072	  1.21157	710.85498	 13.50	
 13.604	-64.789	  1.10284	  0.76370	  0.31710	  0.12533	  1.01340	 -0.05079	  1.21414	710.85699	 13.60	
 13.611	-57.569	  1.10459	  0.82234	  0.26773	  0.15020	  0.98142	 -0.04948	  1.21657	710.88202	 13.60	
 13.596	-50.360	  1.10113	  0.87268	  0.22406	  0.18003	  0.93901	 -0.05309	  1.21273	710.83197	 13.60	
 13.601	-43.175	  1.09921	  0.92114	  0.18485	  0.21569	  0.89151	 -0.05257	  1.21143	710.80499	 13.60	
 13.611	-36.001	  1.10667	  0.96873	  0.15498	  0.25838	  0.84731	 -0.05294	  1.21911	710.85199	 13.60	
 13.609	-28.790	  1.09829	  0.99786	  0.12613	  0.30424	  0.78607	 -0.05209	  1.20974	710.76300	 13.60	
 13.601	-21.647	  1.10629	  1.03359	  0.10388	  0.35668	  0.73249	 -0.05076	  1.21945	710.73602	 13.60	
 13.611	-14.417	  1.10456	  1.05268	  0.08979	  0.41020	  0.67085	 -0.04933	  1.21584	710.79303	 13.60	
 13.608	 -7.147	  1.10466	  1.06591	  0.07897	  0.46813	  0.60757	 -0.04922	  1.21595	710.83301	 13.60	
 13.600	  0.000	  1.10297	  1.06816	  0.07850	  0.52687	  0.54675	 -0.04884	  1.21266	710.73602	 13.60	
 13.608	  7.147	  1.10466	  1.06544	  0.08317	  0.58845	  0.48864	 -0.04819	  1.21246	710.77002	 13.60	
 13.611	 14.417	  1.10753	  1.05645	  0.09192	  0.65092	  0.43016	 -0.04701	  1.21516	710.73901	 13.60	
 13.601	 21.647	  1.11006	  1.03622	  0.11054	  0.71479	  0.37477	 -0.04542	  1.21485	710.73499	 13.60	
 13.609	 28.790	  1.10709	  1.00602	  0.13145	  0.77063	  0.32271	 -0.04340	  1.21116	710.69800	 13.60	
 13.611	 36.001	  1.10672	  0.97022	  0.15919	  0.82397	  0.27786	 -0.04213	  1.20799	710.80103	 13.60	
 13.601	 43.175	  1.10981	  0.92950	  0.19496	  0.87703	  0.23760	 -0.04136	  1.20860	710.68402	 13.60	
 13.596	 50.360	  1.11206	  0.88374	  0.23294	  0.92397	  0.20172	 -0.04187	  1.21015	710.71198	 13.60	
 13.611	 57.569	  1.11451	  0.83099	  0.27851	  0.96432	  0.17215	 -0.04162	  1.21067	710.74701	 13.60	
 13.604	 64.789	  1.12067	  0.77840	  0.32825	  1.00254	  0.14735	 -0.04269	  1.21639	710.81897	 13.60	
 13.595	 71.958	  1.12091	  0.71794	  0.38290	  1.02657	  0.13005	 -0.04238	  1.21364	710.84302	 13.60	
 13.607	 79.207	  1.12271	  0.65743	  0.43948	  1.04613	  0.11630	 -0.04355	  1.21563	710.79199	 13.60	
 13.601	 86.383	  1.12135	  0.59362	  0.49858	  1.05219	  0.11224	 -0.04415	  1.21166	710.85999	 13.60	
 13.601	 93.617	  1.12216	  0.53280	  0.55901	  1.05326	  0.11131	 -0.04573	  1.21131	710.83197	 13.60	
 13.607	100.793	  1.12663	  0.47427	  0.62356	  1.05024	  0.11914	 -0.04611	  1.21514	710.80499	 13.60	
 13.595	108.042	  1.12702	  0.41660	  0.68595	  1.03329	  0.13328	 -0.04478	  1.21395	710.83502	 13.60	
 13.604	115.211	  1.13039	  0.36583	  0.74661	  1.01349	  0.15186	 -0.04511	  1.21625	710.68799	 13.60	
 13.611	122.431	  1.12747	  0.31552	  0.80181	  0.97914	  0.17709	 -0.04434	  1.21358	710.78699	 13.60	
 13.596	129.640	  1.13261	  0.27203	  0.85899	  0.94375	  0.21072	 -0.04440	  1.21704	710.82501	 13.60	
 13.601	136.825	  1.13246	  0.23222	  0.90619	  0.89885	  0.24678	 -0.04281	  1.21625	710.80103	 13.60	
 13.611	143.999	  1.12930	  0.19783	  0.94653	  0.84678	  0.28741	 -0.04306	  1.21326	710.81097	 13.60	
 13.609	151.210	  1.13253	  0.17124	  0.98331	  0.79384	  0.33660	 -0.04163	  1.21673	710.82397	 13.60	
 13.601	158.353	  1.13084	  0.14705	  1.01210	  0.73525	  0.38689	 -0.04160	  1.21565	710.81097	 13.70	
 13.611	165.583	  1.12738	  0.13066	  1.03017	  0.67178	  0.44181	 -0.04192	  1.21289	710.72699	 13.70	
 13.608	172.853	  1.13045	  0.12096	  1.04502	  0.61131	  0.50244	 -0.04232	  1.21618	710.64899	 13.70	
 15.298	173.587	  1.09747	  0.05137	  1.07989	  0.58612	  0.47769	 -0.04840	  1.21410	710.76202	 13.70	
 15.291	167.167	  1.09676	  0.05824	  1.06907	  0.64724	  0.41884	 -0.04803	  1.21280	710.84003	 13.70	
 15.307	160.676	  1.09700	  0.07127	  1.05216	  0.70897	  0.36098	 -0.04906	  1.21324	710.76300	 13.70	
 15.300	154.261	  1.10112	  0.09349	  1.02805	  0.77053	  0.31056	 -0.05027	  1.21584	710.73602	 13.70	
 15.288	147.854	  1.10102	  0.11877	  0.99574	  0.82573	  0.26376	 -0.04986	  1.21460	710.71198	 13.70	
 15.293	141.428	  1.09573	  0.14690	  0.95294	  0.87574	  0.21552	 -0.05024	  1.21013	710.72302	 13.70	
 15.299	134.985	  1.09523	  0.18240	  0.90854	  0.92394	  0.17694	 -0.05058	  1.20952	710.71100	 13.70	
 15.305	128.583	  1.09822	  0.22277	  0.86331	  0.97010	  0.14318	 -0.05236	  1.21325	710.74597	 13.70	
 15.309	122.142	  1.09787	  0.26582	  0.80861	  1.00733	  0.11374	 -0.05317	  1.21223	710.70001	 13.70	
 15.304	115.711	  1.09801	  0.31433	  0.75181	  1.03977	  0.08751	 -0.05384	  1.21458	710.73102	 13.70	
 15.297	109.291	  1.09688	  0.36547	  0.69175	  1.06464	  0.06805	 -0.05449	  1.21519	710.76599	 13.70	
 15.293	102.897	  1.09596	  0.42128	  0.63110	  1.08076	  0.05395	 -0.05493	  1.21447	710.78497	 13.70	
 15.293	 96.458	  1.09348	  0.47977	  0.56750	  1.08977	  0.04511	 -0.05421	  1.21357	710.75000	 13.70	
 15.300	 90.000	  1.09914	  0.54308	  0.51004	  1.09785	  0.04379	 -0.05402	  1.22004	710.74298	 13.70	
 15.293	 83.542	  1.09189	  0.60156	  0.44617	  1.08810	  0.04439	 -0.05307	  1.21411	710.67297	 13.70	
 15.293	 77.103	  1.08807	  0.66181	  0.38658	  1.07268	  0.05237	 -0.05367	  1.21217	710.71198	 13.70	
 15.297	 70.709	  1.08833	  0.72158	  0.33313	  1.05578	  0.06485	 -0.05182	  1.21440	710.76202	 13.70	
 15.304	 64.289	  1.08880	  0.78225	  0.28060	  1.03082	  0.08362	 -0.05237	  1.21567	710.73602	 13.70	
 15.309	 57.858	  1.08615	  0.83953	  0.23108	  0.99659	  0.10773	 -0.05138	  1.21540	710.80798	 13.70	
 15.305	 51.417	  1.08352	  0.89052	  0.18783	  0.95490	  0.13814	 -0.05176	  1.21324	710.73798	 13.70	
 15.299	 45.015	  1.08355	  0.93826	  0.15079	  0.91074	  0.17280	 -0.05083	  1.21459	710.71100	 13.70	
 15.293	 38.572	  1.08125	  0.98322	  0.11446	  0.86081	  0.21152	 -0.05139	  1.21454	710.72699	 13.70	
 15.288	 32.146	  1.07993	  1.01910	  0.08591	  0.80572	  0.25508	 -0.05212	  1.21503	710.67902	 13.70	
 15.300	 25.739	  1.07714	  1.04860	  0.06063	  0.74828	  0.30139	 -0.05456	  1.21424	710.75800	 13.70	
 15.307	 19.324	  1.07442	  1.07320	  0.04014	  0.68756	  0.35212	 -0.05581	  1.21354	710.75500	 13.70	
 15.291	 12.833	  1.07087	  1.08778	  0.02528	  0.62446	  0.40626	 -0.05604	  1.21117	710.73499	 13.80	
 15.298	  6.413	  1.07042	  1.09884	  0.01858	  0.56517	  0.46475	 -0.05616	  1.21257	710.69598	 13.80	
 15.300	  0.000	  1.07087	  1.10328	  0.01378	  0.50403	  0.52351	 -0.05693	  1.21402	710.72699	 13.80	
 15.298	 -6.413	  1.07047	  1.09889	  0.01512	  0.44547	  0.58323	 -0.05558	  1.21503	710.66498	 13.80	
 15.291	-12.833	  1.07189	  1.08878	  0.02452	  0.38895	  0.64668	 -0.05622	  1.21619	710.76001	 13.80	
 15.307	-19.324	  1.06754	  1.06709	  0.03568	  0.33245	  0.70362	 -0.05471	  1.21199	710.72198	 13.80	
 15.300	-25.739	  1.07008	  1.04478	  0.05331	  0.28256	  0.76447	 -0.05866	  1.21531	710.72998	 13.80	
 15.288	-32.146	  1.06891	  1.01158	  0.07667	  0.23373	  0.82059	 -0.05959	  1.21541	710.77600	 13.80	
 15.293	-38.572	  1.06725	  0.97091	  0.10438	  0.19028	  0.87189	 -0.05906	  1.21304	710.74597	 13.80	
 15.299	-45.015	  1.06827	  0.92778	  0.13742	  0.15084	  0.92248	 -0.05729	  1.21422	710.80298	 13.80	
 15.305	-51.417	  1.06788	  0.87870	  0.17835	  0.11912	  0.96686	 -0.05560	  1.21303	710.75403	 13.80	
 15.309	-57.858	  1.06848	  0.82512	  0.22119	  0.09017	  1.00571	 -0.05300	  1.21339	710.77002	 13.80	
 15.304	-64.289	  1.07131	  0.77074	  0.26837	  0.06587	  1.04118	 -0.05198	  1.21628	710.69598	 13.80	
 15.297	-70.709	  1.06973	  0.70788	  0.32171	  0.04812	  1.06458	 -0.05223	  1.21283	710.73499	 13.80	
 15.293	-77.103	  1.07283	  0.64981	  0.37552	  0.03539	  1.08483	 -0.05277	  1.21467	710.77399	 13.80	
 15.293	-83.542	  1.07285	  0.58893	  0.43270	  0.02738	  1.09730	 -0.05357	  1.21392	710.74597	 13.80	
 15.300	-90.000	  1.07170	  0.52663	  0.49278	  0.02474	  1.10078	 -0.05313	  1.21253	710.63098	 13.80	
 15.293	-96.458	  1.07249	  0.46841	  0.55365	  0.03092	  1.09455	 -0.05235	  1.20991	710.70599	 13.80	
 15.293	-102.897	  1.07794	  0.41167	  0.61733	  0.03905	  1.08949	 -0.05386	  1.21470	710.72302	 13.80	
 15.297	-109.291	  1.07457	  0.35466	  0.67400	  0.05091	  1.06935	 -0.05330	  1.20978	710.71997	 13.80	
 15.304	-115.711	  1.08249	  0.30633	  0.73937	  0.07243	  1.05115	 -0.05253	  1.21588	710.75800	 13.80	
 15.309	-122.142	  1.08151	  0.25680	  0.79688	  0.09707	  1.01856	 -0.05050	  1.21384	710.72803	 13.80	
 15.305	-128.583	  1.08462	  0.21416	  0.85160	  0.12841	  0.98273	 -0.04998	  1.21517	710.79498	 13.80	
 15.299	-134.985	  1.08778	  0.17664	  0.90277	  0.16439	  0.93936	 -0.04802	  1.21628	710.68201	 13.80	
 15.293	-141.428	  1.08898	  0.14442	  0.94625	  0.20567	  0.89070	 -0.04996	  1.21529	710.71100	 13.80	
 15.288	-147.854	  1.09072	  0.11238	  0.98775	  0.24844	  0.83778	 -0.04819	  1.21579	710.79199	 13.80	
 15.300	-154.261	  1.09047	  0.08834	  1.02013	  0.29671	  0.78004	 -0.04790	  1.21416	710.66602	 13.80	
 15.307	-160.676	  1.09133	  0.07012	  1.04591	  0.34892	  0.72166	 -0.04962	  1.21430	710.71198	 13.80	
 15.291	-167.167	  1.09351	  0.05715	  1.06564	  0.40636	  0.65959	 -0.04985	  1.21378	710.62598	 13.80	
 15.298	-173.587	  1.09568	  0.04937	  1.07944	  0.46474	  0.59906	 -0.04977	  1.21524	710.66302	 13.80	
 15.300	180.000	  1.09268	  0.04583	  1.08050	  0.52309	  0.53555	 -0.04970	  1.21109	710.69800	 13.80	
 17.000	180.000	  1.06250	 -0.01433	  1.11443	  0.50305	  0.51294	 -0.05252	  1.21416	710.69000	 13.80	
 16.990	-174.179	  1.05978	 -0.01028	  1.10759	  0.44321	  0.57397	 -0.05361	  1.21144	710.73602	 13.90	
 17.009	-168.383	  1.05845	 -0.00489	  1.09724	  0.38505	  0.63510	 -0.05205	  1.21173	710.75403	 13.80	
 17.000	-162.596	  1.05550	  0.00475	  1.07980	  0.32875	  0.69344	 -0.05281	  1.21157	710.68701	 13.90	
 16.990	-156.759	  1.05611	  0.02855	  1.05568	  0.28078	  0.75562	 -0.05115	  1.21221	710.74298	 13.80	
 16.995	-150.919	  1.05421	  0.04444	  1.02675	  0.22957	  0.81157	 -0.05256	  1.21273	710.71600	 13.90	
 16.988	-145.161	  1.05676	  0.07276	  0.99372	  0.18711	  0.86836	 -0.05218	  1.21624	710.70801	 13.90	
 17.014	-139.343	  1.05288	  0.10419	  0.95146	  0.14769	  0.91840	 -0.05045	  1.21412	710.69501	 13.90	
 17.007	-133.546	  1.04904	  0.13718	  0.90283	  0.10892	  0.96212	 -0.05175	  1.21140	710.64099	 13.90	
 17.001	-127.699	  1.05005	  0.17546	  0.85410	  0.07566	  1.00687	 -0.05283	  1.21542	710.74597	 13.90	
 17.006	-121.937	  1.04962	  0.21708	  0.80094	  0.04533	  1.04478	 -0.05292	  1.21700	710.69598	 13.90	
 17.002	-116.134	  1.04556	  0.25985	  0.74254	  0.01904	  1.07197	 -0.05584	  1.21374	710.69202	 13.90	
 17.001	-110.310	  1.03998	  0.30870	  0.68027	 -0.00104	  1.09323	 -0.05533	  1.21000	710.67297	 13.90	
 16.988	-104.517	  1.03805	  0.36160	  0.62219	 -0.01336	  1.10916	 -0.05404	  1.20845	710.73798	 13.90	
 17.008	-98.662	  1.03711	  0.41725	  0.56084	 -0.02550	  1.12253	 -0.05229	  1.21072	710.67902	 13.90	
 16.996	-92.909	  1.03934	  0.47523	  0.50404	 -0.02959	  1.13142	 -0.05107	  1.21468	710.61902	 13.90	
 16.996	-87.091	  1.03635	  0.53157	  0.44117	 -0.03619	  1.12992	 -0.05125	  1.21395	710.71100	 13.90	
 17.012	-81.253	  1.03910	  0.59643	  0.38532	 -0.02699	  1.12565	 -0.04995	  1.21695	710.77399	 13.90	
 16.988	-75.483	  1.03352	  0.65175	  0.32871	 -0.01852	  1.10576	 -0.04970	  1.21085	710.69800	 13.90	
 17.001	-69.690	  1.03466	  0.71272	  0.27610	 -0.00575	  1.08838	 -0.04946	  1.21428	710.64203	 13.90	
 17.002	-63.866	  1.03161	  0.76811	  0.22707	  0.01100	  1.05966	 -0.05127	  1.21200	710.61401	 13.90	
 17.006	-58.063	  1.02978	  0.82537	  0.17907	  0.03637	  1.02583	 -0.05167	  1.21061	710.72302	 13.90	
 17.001	-52.301	  1.03282	  0.88013	  0.13784	  0.06218	  0.99194	 -0.05319	  1.21552	710.69598	 13.90	
 17.007	-46.454	  1.03218	  0.92886	  0.10082	  0.09463	  0.94823	 -0.05616	  1.21479	710.69598	 13.90	
 17.014	-40.657	  1.02918	  0.97209	  0.06514	  0.12855	  0.89845	 -0.05739	  1.21198	710.84302	 13.90	
 16.988	-34.839	  1.03275	  1.01481	  0.03601	  0.16951	  0.84902	 -0.05874	  1.21521	710.71100	 13.90	
 16.995	-29.081	  1.02903	  1.04727	  0.01203	  0.21454	  0.79365	 -0.05839	  1.21192	710.73602	 13.90	
 16.990	-23.241	  1.03132	  1.07694	 -0.00798	  0.26256	  0.73724	 -0.05628	  1.21285	710.71100	 13.90	
 17.000	-17.404	  1.03634	  1.10513	 -0.02247	  0.31560	  0.68175	 -0.05648	  1.21774	710.78998	 13.90	
 17.009	-11.617	  1.03479	  1.12130	 -0.03605	  0.36838	  0.62025	 -0.05764	  1.21645	710.76599	 13.90	
 16.990	 -5.821	  1.03550	  1.12924	 -0.03915	  0.42584	  0.56089	 -0.05758	  1.21479	710.75000	 13.90	
 17.000	  0.000	  1.03371	  1.13099	 -0.04155	  0.48176	  0.50049	 -0.05868	  1.21275	710.71198	 14.00	
 16.990	  5.821	  1.03338	  1.12640	 -0.03766	  0.54150	  0.44304	 -0.05856	  1.20975	710.74701	 13.90	
 17.009	 11.617	  1.03651	  1.12096	 -0.03255	  0.60142	  0.38581	 -0.05877	  1.21294	710.73102	 14.00	
 17.000	 17.404	  1.03867	  1.10774	 -0.02145	  0.66267	  0.33273	 -0.05987	  1.21399	710.68799	 14.00	
 16.990	 23.241	  1.04289	  1.08692	 -0.00139	  0.72285	  0.28406	 -0.05877	  1.21573	710.69000	 14.00	
 16.995	 29.081	  1.04132	  1.05616	  0.02178	  0.77937	  0.23647	 -0.05757	  1.21091	710.73901	 14.00	
 16.988	 34.839	  1.04681	  1.02750	  0.04728	  0.83673	  0.19500	 -0.05875	  1.21596	710.69598	 14.00	
 17.014	 40.657	  1.04631	  0.98676	  0.07644	  0.88782	  0.15178	 -0.05949	  1.21407	710.71399	 14.00	
 17.007	 46.454	  1.04120	  0.93653	  0.10705	  0.93033	  0.11262	 -0.05930	  1.20648	710.76599	 14.00	
 17.001	 52.301	  1.03836	  0.88330	  0.14798	  0.97011	  0.08270	 -0.05920	  1.20097	710.71198	 14.00	
 17.006	 58.063	  1.04455	  0.83575	  0.19096	  1.01214	  0.05592	 -0.05833	  1.20562	710.69000	 14.00	
 17.002	 63.866	  1.04973	  0.78314	  0.23602	  1.04966	  0.02887	 -0.05916	  1.21098	710.67603	 14.00	
 17.001	 69.690	  1.05216	  0.72585	  0.28756	  1.07695	  0.01201	 -0.06022	  1.21154	710.70801	 14.00	
 16.988	 75.483	  1.05365	  0.66548	  0.33732	  1.09852	 -0.00575	 -0.06056	  1.21166	710.67902	 14.00	
 17.012	 81.253	  1.05642	  0.60816	  0.39384	  1.11429	 -0.01352	 -0.06125	  1.21308	710.74597	 14.00	
 16.996	 87.091	  1.06031	  0.54900	  0.45567	  1.12454	 -0.01611	 -0.06153	  1.21581	710.65802	 14.00	
 16.996	 92.909	  1.06096	  0.48828	  0.51329	  1.12547	 -0.01849	 -0.06060	  1.21569	710.75000	 14.00	
 17.008	 98.662	  1.06009	  0.42953	  0.57336	  1.11850	 -0.01254	 -0.05985	  1.21424	710.73102	 14.00	
 16.988	104.517	  1.06304	  0.37421	  0.63582	  1.10714	 -0.00205	 -0.05905	  1.21488	710.73499	 14.00	
 17.001	110.310	  1.06346	  0.31992	  0.69462	  1.08934	  0.01083	 -0.06004	  1.21469	710.79199	 14.00	
 17.002	116.134	  1.06368	  0.26783	  0.75434	  1.06476	  0.02936	 -0.05865	  1.21384	710.71899	 14.00	
 17.006	121.937	  1.06393	  0.21988	  0.81115	  1.03322	  0.05210	 -0.05894	  1.21378	710.79999	 14.00	
 17.001	127.699	  1.06683	  0.17898	  0.86486	  0.99867	  0.08171	 -0.05926	  1.21491	710.77399	 14.00	
 17.007	133.546	  1.06497	  0.13717	  0.91370	  0.95404	  0.11334	 -0.05736	  1.21367	710.67902	 14.00	
 17.014	139.343	  1.06652	  0.10333	  0.96174	  0.90781	  0.15281	 -0.05572	  1.21410	710.71899	 14.00	
 16.988	145.161	  1.06805	  0.07372	  1.00216	  0.85774	  0.19486	 -0.05578	  1.21569	710.71600	 14.00	
 16.995	150.919	  1.06584	  0.04728	  1.03646	  0.80145	  0.24052	 -0.05472	  1.21363	710.73901	 14.00	
 16.990	156.759	  1.06898	  0.02369	  1.06796	  0.74573	  0.28917	 -0.05501	  1.21752	710.74298	 14.10	
 17.000	162.596	  1.06629	  0.00827	  1.08828	  0.68469	  0.34263	 -0.05328	  1.21481	710.66101	 14.10	
 17.009	168.383	  1.06237	 -0.00409	  1.10121	  0.62386	  0.39579	 -0.05275	  1.21172	710.69501	 14.10	
 16.990	174.179	  1.06277	 -0.01069	  1.11005	  0.56259	  0.45491	 -0.05607	  1.21221	710.72699	 14.10	
 18.709	174.675	  1.02127	 -0.07176	  1.13462	  0.53542	  0.42861	 -0.05065	  1.20873	710.72998	 14.10	
 18.703	169.441	  1.02144	 -0.06406	  1.12522	  0.59422	  0.37239	 -0.05144	  1.20657	710.74402	 14.10	
 18.691	164.085	  1.02290	 -0.05357	  1.11155	  0.65394	  0.31864	 -0.05165	  1.20663	710.66498	 14.10	
 18.706	158.818	  1.02944	 -0.03817	  1.09863	  0.71614	  0.26870	 -0.05240	  1.21421	710.66803	 14.10	
 18.695	153.537	  1.02869	 -0.02112	  1.07188	  0.77259	  0.21884	 -0.05530	  1.21295	710.69598	 14.10	
 18.704	148.255	  1.02957	  0.00235	  1.04337	  0.82976	  0.17085	 -0.05435	  1.21402	710.78699	 14.10	
 18.698	142.952	  1.03111	  0.03211	  1.00629	  0.88228	  0.13087	 -0.05264	  1.21431	710.75800	 14.10	
 18.699	137.625	  1.02999	  0.06410	  0.96293	  0.93110	  0.09201	 -0.05437	  1.21301	710.62598	 14.10	
 18.705	132.343	  1.02651	  0.09839	  0.91383	  0.97347	  0.05614	 -0.05597	  1.20927	710.73499	 14.10	
 18.713	127.067	  1.02900	  0.13691	  0.86666	  1.01782	  0.02459	 -0.05721	  1.21354	710.70599	 14.10	
 18.700	121.794	  1.03069	  0.17923	  0.81603	  1.05485	 -0.00095	 -0.05757	  1.21609	710.70398	 14.10	
 18.698	116.504	  1.02889	  0.22372	  0.75936	  1.08511	 -0.02529	 -0.05757	  1.21510	710.67902	 14.10	
 18.707	111.165	  1.02626	  0.27301	  0.69766	  1.10910	 -0.04593	 -0.05748	  1.21270	710.68103	 14.10	
 18.690	105.863	  1.02089	  0.32365	  0.63772	  1.12240	 -0.05809	 -0.05624	  1.20734	710.63800	 14.10	
 18.696	100.583	  1.02422	  0.37907	  0.57981	  1.13952	 -0.06850	 -0.05508	  1.21190	710.65002	 14.10	
 18.700	 95.309	  1.01885	  0.43267	  0.51739	  1.14409	 -0.07719	 -0.05642	  1.20828	710.74402	 14.10	
 18.700	 90.000	  1.02219	  0.49147	  0.46058	  1.15077	 -0.08059	 -0.05837	  1.21358	710.67603	 14.10	
 18.700	 84.691	  1.01905	  0.55043	  0.40109	  1.14425	 -0.07784	 -0.05961	  1.21161	710.69800	 14.10	
 18.696	 79.417	  1.01814	  0.60932	  0.34491	  1.13533	 -0.07325	 -0.06082	  1.21229	710.67902	 14.10	
 18.690	 74.137	  1.01635	  0.66854	  0.28990	  1.11923	 -0.06316	 -0.06137	  1.21201	710.71600	 14.10	
 18.707	 68.835	  1.01642	  0.72892	  0.23758	  1.09916	 -0.04988	 -0.06185	  1.21444	710.65002	 14.10	
 18.698	 63.496	  1.01357	  0.78507	  0.18795	  1.07102	 -0.03247	 -0.05915	  1.21301	710.63397	 14.10	
 18.700	 58.206	  1.01235	  0.84111	  0.14135	  1.03866	 -0.00991	 -0.06009	  1.21467	710.67401	 14.10	
 18.713	 52.933	  1.01207	  0.89428	  0.09847	  1.00160	  0.01452	 -0.06010	  1.21605	710.72699	 14.10	
 18.705	 47.657	  1.00702	  0.93967	  0.06044	  0.95578	  0.04333	 -0.06198	  1.21215	710.71600	 14.10	
 18.699	 42.375	  1.00588	  0.98559	  0.02462	  0.90923	  0.07829	 -0.06104	  1.21253	710.67102	 14.20	
 18.698	 37.048	  1.00485	  1.02711	 -0.00668	  0.85804	  0.11692	 -0.06032	  1.21364	710.63098	 14.20	
 18.704	 31.745	  1.00300	  1.06222	 -0.03328	  0.80432	  0.15772	 -0.05885	  1.21340	710.69202	 14.20	
 18.695	 26.463	  1.00061	  1.09311	 -0.05899	  0.74710	  0.20073	 -0.05828	  1.21408	710.61700	 14.20	
 18.706	 21.182	  0.99814	  1.11650	 -0.07697	  0.68834	  0.24953	 -0.05683	  1.21211	710.63300	 14.20	
 18.691	 15.915	  0.99721	  1.13678	 -0.09287	  0.62849	  0.30000	 -0.05813	  1.21318	710.69202	 14.20	
 18.703	 10.559	  0.99429	  1.14930	 -0.10511	  0.56702	  0.35268	 -0.05703	  1.21207	710.66498	 14.20	
 18.709	  5.325	  0.99397	  1.15855	 -0.11518	  0.50905	  0.40572	 -0.05700	  1.21479	710.66302	 14.20	
 18.700	  0.000	  0.99223	  1.16078	 -0.11785	  0.44912	  0.46320	 -0.05692	  1.21493	710.69800	 14.20	
 18.709	 -5.325	  0.99105	  1.15612	 -0.11579	  0.38847	  0.52507	 -0.05560	  1.21333	710.77899	 14.20	
 18.703	-10.559	  0.98926	  1.14684	 -0.11201	  0.33278	  0.58149	 -0.05556	  1.21272	710.72803	 14.20	
 18.691	-15.915	  0.99178	  1.13330	 -0.09933	  0.28147	  0.64458	 -0.05313	  1.21484	710.64697	 14.20	
 18.706	-21.182	  0.99220	  1.11417	 -0.08667	  0.22990	  0.70375	 -0.05258	  1.21612	710.63800	 14.20	
 18.695	-26.463	  0.98875	  1.08512	 -0.07219	  0.17759	  0.75881	 -0.05262	  1.21389	710.70599	 14.20	
 18.704	-31.745	  0.98984	  1.05454	 -0.04919	  0.13378	  0.81480	 -0.05552	  1.21466	710.67297	 14.20	
 18.698	-37.048	  0.98895	  1.01606	 -0.02207	  0.09155	  0.86813	 -0.05232	  1.21330	710.62201	 14.20	
 18.699	-42.375	  0.98721	  0.97234	  0.00736	  0.05247	  0.91819	 -0.05212	  1.21198	710.66803	 14.20	
 18.705	-47.657	  0.99146	  0.92876	  0.04254	  0.01928	  0.96759	 -0.04980	  1.21609	710.67297	 14.20	
 18.713	-52.933	  0.98813	  0.87512	  0.08105	 -0.01142	  1.00716	 -0.04723	  1.21222	710.63898	 14.20	
 18.700	-58.206	  0.98694	  0.82059	  0.12174	 -0.03786	  1.04237	 -0.04698	  1.20938	710.73499	 14.20	
 18.698	-63.496	  0.98635	  0.76456	  0.16603	 -0.06007	  1.07426	 -0.04458	  1.20886	710.65802	 14.20	
 18.707	-68.835	  0.99141	  0.70854	  0.21662	 -0.08001	  1.10642	 -0.04306	  1.21437	710.68402	 14.20	
 18.690	-74.137	  0.99169	  0.64878	  0.26935	 -0.09065	  1.12511	 -0.04248	  1.21178	710.69202	 14.20	
 18.696	-79.417	  0.99583	  0.59088	  0.32414	 -0.10043	  1.14383	 -0.04206	  1.21548	710.71100	 14.20	
 18.700	-84.691	  0.99459	  0.53086	  0.38049	 -0.10620	  1.15176	 -0.04365	  1.21307	710.68799	 14.20	
 18.700	-90.000	  0.99579	  0.47212	  0.43845	 -0.10655	  1.15479	 -0.04508	  1.21240	710.65002	 14.20	
 18.700	-95.309	  0.99880	  0.41569	  0.49974	 -0.10354	  1.15564	 -0.04559	  1.21440	710.64899	 14.20	
 18.696	-100.583	  0.99832	  0.35790	  0.55895	 -0.09624	  1.14640	 -0.04592	  1.21253	710.64099	 14.20	
 18.690	-105.863	  1.00352	  0.30574	  0.62056	 -0.08473	  1.13658	 -0.04818	  1.21588	710.70599	 14.20	
 18.707	-111.165	  1.00714	  0.25574	  0.68287	 -0.06728	  1.11903	 -0.05126	  1.21813	710.62598	 14.20	
 18.698	-116.504	  1.00547	  0.20690	  0.73954	 -0.04732	  1.09086	 -0.05077	  1.21356	710.70801	 14.20	
 18.700	-121.794	  1.00772	  0.16109	  0.79740	 -0.02416	  1.06121	 -0.05097	  1.21477	710.62598	 14.20	
 18.713	-127.067	  1.00637	  0.11996	  0.84973	  0.00494	  1.02227	 -0.05093	  1.21106	710.66803	 14.20	
 18.705	-132.343	  1.00779	  0.08260	  0.90023	  0.03680	  0.98146	 -0.04982	  1.21103	710.53699	 14.20	
 18.699	-137.625	  1.00956	  0.04968	  0.94727	  0.07352	  0.93559	 -0.04925	  1.21004	710.67102	 14.20	
 18.698	-142.952	  1.00916	  0.02103	  0.98856	  0.11395	  0.88471	 -0.04919	  1.20796	710.57898	 14.20	
 18.704	-148.255	  1.01650	 -0.00353	  1.03109	  0.15798	  0.83743	 -0.04967	  1.21385	710.60303	 14.20	
 18.695	-153.537	  1.01784	 -0.02540	  1.06362	  0.20459	  0.78190	 -0.04804	  1.21371	710.60101	 14.20	
 18.706	-158.818	  1.02026	 -0.04553	  1.09279	  0.25316	  0.72497	 -0.04853	  1.21506	710.63898	 14.30	
 18.691	-164.085	  1.02009	 -0.06010	  1.11229	  0.30407	  0.66493	 -0.04856	  1.21286	710.68103	 14.20	
 18.703	-169.441	  1.02146	 -0.06775	  1.12880	  0.36163	  0.60454	 -0.04651	  1.21266	710.71997	 14.20	
 18.709	-174.675	  1.02304	 -0.07427	  1.13841	  0.41616	  0.54665	 -0.04796	  1.21300	710.64099	 14.20	
 18.700	180.000	  1.02591	 -0.07277	  1.14272	  0.47715	  0.48800	 -0.04974	  1.21403	710.62598	 14.20	
 20.400	180.000	  0.97795	 -0.15051	  1.16288	  0.44015	  0.44915	 -0.04540	  1.20980	710.62201	 14.20	
 20.401	-175.153	  0.98071	 -0.14990	  1.16412	  0.38367	  0.51018	 -0.04210	  1.21497	710.66302	 14.30	
 20.407	-170.264	  0.97889	 -0.14709	  1.15542	  0.32597	  0.56854	 -0.04358	  1.21428	710.60699	 14.30	
 20.410	-165.423	  0.97458	 -0.13942	  1.14034	  0.26938	  0.62567	 -0.04349	  1.21288	710.62500	 14.20	
 20.392	-160.496	  0.97827	 -0.12661	  1.12516	  0.21748	  0.68986	 -0.04313	  1.21858	710.68799	 14.30	
 20.401	-155.705	  0.96988	 -0.11265	  1.09442	  0.16584	  0.74213	 -0.04535	  1.21157	710.69000	 14.30	
 20.405	-150.835	  0.97153	 -0.09173	  1.06520	  0.11941	  0.80146	 -0.04628	  1.21335	710.59100	 14.30	
 20.397	-145.903	  0.96933	 -0.06683	  1.02813	  0.07513	  0.85580	 -0.04464	  1.21278	710.59003	 14.30	
 20.392	-141.062	  0.96981	 -0.04308	  0.99083	  0.03162	  0.91012	 -0.04579	  1.21669	710.64899	 14.30	
 20.396	-136.227	  0.96502	 -0.01208	  0.94327	 -0.00519	  0.95506	 -0.04561	  1.21287	710.53400	 14.30	
 20.408	-131.372	  0.96251	  0.02072	  0.89403	 -0.04012	  0.99910	 -0.04517	  1.21237	710.54199	 14.30	
 20.410	-126.511	  0.96136	  0.05731	  0.84386	 -0.07209	  1.04000	 -0.04422	  1.21406	710.56598	 14.30	
 20.400	-121.604	  0.96035	  0.09815	  0.78957	 -0.09858	  1.07638	 -0.04452	  1.21496	710.57703	 14.30	
 20.403	-116.741	  0.95733	  0.14315	  0.73036	 -0.12164	  1.10430	 -0.04632	  1.21179	710.60602	 14.30	
 20.413	-111.900	  0.95585	  0.18910	  0.67209	 -0.14348	  1.13071	 -0.04532	  1.21314	710.68201	 14.30	
 20.398	-107.004	  0.95246	  0.23887	  0.61043	 -0.15930	  1.14844	 -0.04359	  1.21166	710.62598	 14.30	
 20.394	-102.132	  0.95384	  0.29136	  0.55182	 -0.17378	  1.16658	 -0.04494	  1.21544	710.71600	 14.30	
 20.403	-97.332	  0.95288	  0.34612	  0.49160	 -0.18264	  1.17667	 -0.04307	  1.21599	710.59900	 14.30	
 20.392	-92.440	  0.95100	  0.40288	  0.43134	 -0.18731	  1.17897	 -0.04109	  1.21473	710.67297	 14.30	
 20.392	-87.560	  0.94714	  0.46017	  0.37085	 -0.18797	  1.17633	 -0.03899	  1.21315	710.67102	 14.30	
 20.403	-82.668	  0.94673	  0.52022	  0.31342	 -0.18492	  1.17075	 -0.03843	  1.21377	710.66302	 14.30	
 20.394	-77.868	  0.94527	  0.57932	  0.25885	 -0.17789	  1.15933	 -0.03748	  1.21324	710.62299	 14.30	
 20.398	-72.996	  0.94310	  0.63741	  0.20356	 -0.16965	  1.14149	 -0.03832	  1.21272	710.63898	 14.30	
 20.413	-68.100	  0.94371	  0.69935	  0.15183	 -0.15548	  1.12124	 -0.04017	  1.21433	710.64600	 14.30	
 20.403	-63.259	  0.94536	  0.75874	  0.10487	 -0.13830	  1.09761	 -0.04205	  1.21805	710.66803	 14.30	
 20.400	-58.396	  0.94339	  0.81267	  0.06124	 -0.11420	  1.06229	 -0.04232	  1.21537	710.56799	 14.30	
 20.410	-53.489	  0.93828	  0.86481	  0.01686	 -0.09020	  1.02132	 -0.04439	  1.21173	710.63800	 14.30	
 20.408	-48.628	  0.93650	  0.91586	 -0.02176	 -0.06104	  0.97776	 -0.04615	  1.21117	710.63898	 14.30	
 20.396	-43.773	  0.94397	  0.96874	 -0.05324	 -0.02682	  0.93801	 -0.04643	  1.21834	710.65399	 14.30	
 20.392	-38.938	  0.94377	  1.01074	 -0.08244	  0.01027	  0.88931	 -0.04934	  1.21671	710.66498	 14.30	
 20.397	-34.097	  0.93943	  1.04736	 -0.11109	  0.04882	  0.83363	 -0.05108	  1.21273	710.60101	 14.30	
 20.405	-29.165	  0.93886	  1.08207	 -0.13530	  0.09201	  0.77668	 -0.04921	  1.21208	710.57397	 14.30	
 20.401	-24.295	  0.94192	  1.11546	 -0.15624	  0.13822	  0.72179	 -0.04970	  1.21666	710.56097	 14.30	
 20.392	-19.504	  0.93634	  1.13165	 -0.17015	  0.18534	  0.65986	 -0.04904	  1.20872	710.65503	 14.30	
 20.410	-14.577	  0.94017	  1.15503	 -0.18229	  0.24025	  0.60197	 -0.05029	  1.21230	710.58398	 14.30	
 20.407	 -9.736	  0.94141	  1.16798	 -0.18973	  0.29493	  0.54268	 -0.05024	  1.21256	710.61902	 14.30	
 20.401	 -4.847	  0.93963	  1.17352	 -0.19405	  0.34971	  0.48328	 -0.05339	  1.20898	710.61499	 14.30	
 20.400	  0.000	  0.94533	  1.18199	 -0.19499	  0.40965	  0.42718	 -0.05425	  1.21429	710.65698	 14.30	
 20.401	  4.847	  0.94339	  1.17667	 -0.19078	  0.46849	  0.36903	 -0.05508	  1.21025	710.64899	 14.30	
 20.407	  9.736	  0.94936	  1.17544	 -0.18461	  0.53058	  0.31596	 -0.05335	  1.21579	710.73798	 14.30	
 20.410	 14.577	  0.94822	  1.16139	 -0.17565	  0.58856	  0.26128	 -0.05317	  1.21320	710.69202	 14.30	
 20.392	 19.504	  0.94887	  1.14178	 -0.16016	  0.64772	  0.21035	 -0.05497	  1.21066	710.63000	 14.30	
 20.401	 24.295	  0.95117	  1.12079	 -0.14326	  0.70708	  0.16155	 -0.05587	  1.21226	710.69598	 14.30	
 20.405	 29.165	  0.95562	  1.09629	 -0.12303	  0.76763	  0.11619	 -0.05779	  1.21584	710.64203	 14.40	
 20.397	 34.097	  0.95502	  1.05919	 -0.09667	  0.82172	  0.07402	 -0.05898	  1.21153	710.65802	 14.40	
 20.392	 38.938	  0.95102	  1.01451	 -0.06689	  0.86850	  0.03575	 -0.06001	  1.20316	710.71198	 14.30	
 20.396	 43.773	  0.96012	  0.98114	 -0.03677	  0.92656	 -0.00093	 -0.06178	  1.21351	710.61902	 14.40	
 20.408	 48.628	  0.95986	  0.93357	 -0.00186	  0.97151	 -0.03328	 -0.06167	  1.21162	710.65698	 14.40	
 20.410	 53.489	  0.95989	  0.88201	  0.03753	  1.01095	 -0.06065	 -0.06030	  1.20866	710.66803	 14.40	
 20.400	 58.396	  0.96337	  0.83063	  0.07921	  1.05162	 -0.08656	 -0.05950	  1.21068	710.66602	 14.40	
 20.403	 63.259	  0.96568	  0.77662	  0.12539	  1.08480	 -0.10683	 -0.06011	  1.21134	710.65802	 14.30	
 20.413	 68.100	  0.96615	  0.71805	  0.17424	  1.11175	 -0.12483	 -0.05831	  1.20998	710.64899	 14.40	
 20.398	 72.996	  0.96923	  0.66021	  0.22595	  1.13464	 -0.13863	 -0.05945	  1.21057	710.66101	 14.40	
 20.394	 77.868	  0.97053	  0.60154	  0.28025	  1.15060	 -0.14716	 -0.05917	  1.20898	710.70398	 14.40	
 20.403	 82.668	  0.97627	  0.54499	  0.33603	  1.16736	 -0.15538	 -0.05813	  1.21554	710.76300	 14.40	
 20.392	 87.560	  0.97518	  0.48413	  0.39161	  1.17176	 -0.15945	 -0.05574	  1.21326	710.69202	 14.40	
 20.392	 92.440	  0.97657	  0.42811	  0.45064	  1.17028	 -0.15518	 -0.05468	  1.21121	710.64203	 14.40	
 20.403	 97.332	  0.97632	  0.36894	  0.51165	  1.16644	 -0.15300	 -0.05372	  1.21020	710.61102	 14.40	
 20.394	102.132	  0.98092	  0.31695	  0.57250	  1.16095	 -0.14377	 -0.05132	  1.21378	710.60602	 14.40	
 20.398	107.004	  0.98355	  0.26404	  0.63303	  1.14844	 -0.13354	 -0.05131	  1.21579	710.63098	 14.40	
 20.413	111.900	  0.98497	  0.21090	  0.69311	  1.13082	 -0.11979	 -0.05334	  1.21827	710.61401	 14.40	
 20.403	116.741	  0.98501	  0.16436	  0.75059	  1.10211	 -0.09893	 -0.05445	  1.21495	710.61902	 14.40	
 20.400	121.604	  0.98230	  0.11912	  0.80370	  1.06799	 -0.07590	 -0.05194	  1.21128	710.59302	 14.40	
 20.410	126.511	  0.98563	  0.07664	  0.86076	  1.03575	 -0.05110	 -0.05354	  1.21431	710.58398	 14.40	
 20.408	131.372	  0.98560	  0.03678	  0.91200	  0.99453	 -0.02135	 -0.05239	  1.21421	710.60901	 14.40	
 20.396	136.227	  0.98590	  0.00406	  0.95812	  0.94989	  0.01366	 -0.05010	  1.21293	710.60101	 14.40	
 20.392	141.062	  0.98484	 -0.02715	  0.99936	  0.90031	  0.04982	 -0.05193	  1.21210	710.61401	 14.40	
 20.397	145.903	  0.98392	 -0.05463	  1.03733	  0.84818	  0.09084	 -0.05047	  1.20998	710.50897	 14.40	
 20.405	150.835	  0.98660	 -0.08005	  1.07542	  0.79514	  0.13509	 -0.04892	  1.21343	710.62299	 14.40	
 20.401	155.705	  0.98463	 -0.10210	  1.10337	  0.73774	  0.18054	 -0.04902	  1.21211	710.55298	 14.40	
 20.392	160.496	  0.98247	 -0.11746	  1.12418	  0.67806	  0.23037	 -0.04879	  1.20892	710.66302	 14.40	
 20.410	165.423	  0.98461	 -0.13278	  1.14549	  0.62057	  0.28237	 -0.04826	  1.21312	710.64697	 14.40	
 20.407	170.264	  0.98192	 -0.14153	  1.15525	  0.55985	  0.33644	 -0.04654	  1.21125	710.50403	 14.40	
 20.401	175.153	  0.98125	 -0.14785	  1.16328	  0.50012	  0.39316	 -0.04538	  1.21214	710.50201	 14.40	
  0.141	 45.000	  1.21700	  0.65347	  0.63135	  0.64970	  0.64137	  0.00270	  1.21346	710.60602	 14.40	
  4.001	128.691	  1.21720	  0.56824	  0.70479	  0.73984	  0.54375	  0.00067	  1.21216	710.61102	 14.40	
  4.002	 76.995	  1.21636	  0.68107	  0.58837	  0.76878	  0.51494	  0.00097	  1.21315	710.67401	 14.40	
  4.002	 25.892	  1.21360	  0.77938	  0.49599	  0.68688	  0.58107	 -0.00039	  1.21253	710.56097	 14.40	
  4.002	-25.892	  1.21596	  0.77969	  0.49394	  0.56674	  0.70338	 -0.00360	  1.21619	710.56598	 14.40	
  4.002	-76.995	  1.21120	  0.67681	  0.57883	  0.49477	  0.78267	 -0.00507	  1.21201	710.60901	 14.40	
  4.001	-128.691	  1.21690	  0.56372	  0.70300	  0.52602	  0.75905	 -0.00220	  1.21415	710.58502	 14.40	
  4.000	180.000	  1.21841	  0.52001	  0.76216	  0.63369	  0.64500	  0.00029	  1.21280	710.54999	 14.40	
  8.000	180.000	  1.19755	  0.35567	  0.89509	  0.60991	  0.62220	 -0.01332	  1.21207	710.48499	 14.40	
  7.991	-152.370	  1.19181	  0.38161	  0.85419	  0.47633	  0.75677	 -0.01324	  1.20942	710.53699	 14.40	
  7.997	-124.550	  1.19016	  0.46081	  0.75485	  0.37598	  0.86756	 -0.01874	  1.21212	710.54498	 14.40	
  8.006	-96.837	  1.18569	  0.58342	  0.61724	  0.32901	  0.91598	 -0.02224	  1.21193	710.57599	 14.40	
  7.988	-69.228	  1.18566	  0.72313	  0.48271	  0.34140	  0.89510	 -0.02356	  1.21411	710.55200	 14.40	
  7.997	-41.563	  1.18393	  0.84362	  0.37647	  0.41076	  0.81017	 -0.02264	  1.21184	710.48700	 14.40	
  8.008	-13.821	  1.18343	  0.91325	  0.32094	  0.52627	  0.68190	 -0.01978	  1.21129	710.49500	 14.40	
  8.008	 13.821	  1.19044	  0.91962	  0.32444	  0.66717	  0.54710	 -0.01659	  1.21546	710.57599	 14.40	
  7.997	 41.563	  1.19222	  0.85052	  0.38449	  0.79782	  0.43104	 -0.01299	  1.21387	710.58502	 14.40	
  7.988	 69.228	  1.19338	  0.73088	  0.49226	  0.88293	  0.36338	 -0.01269	  1.21112	710.49799	 14.40	
  8.006	 96.837	  1.19663	  0.59341	  0.62800	  0.90466	  0.35144	 -0.01330	  1.21293	710.43903	 14.40	
  7.997	124.550	  1.19394	  0.46960	  0.75893	  0.85051	  0.39603	 -0.01296	  1.20766	710.51202	 14.40	
  7.991	152.370	  1.19754	  0.38751	  0.85836	  0.74458	  0.49293	 -0.01245	  1.21102	710.60901	 14.40	
 12.009	161.059	  1.14921	  0.20597	  0.97967	  0.71032	  0.44245	 -0.03316	  1.20791	710.53900	 14.40	
 12.013	142.081	  1.15290	  0.26451	  0.91075	  0.84364	  0.32736	 -0.03377	  1.21219	710.64697	 14.40	
 12.006	123.113	  1.15071	  0.35889	  0.79711	  0.94473	  0.24037	 -0.03512	  1.21059	710.61902	 14.40	
 12.007	104.200	  1.15092	  0.48250	  0.66042	  1.00454	  0.19170	 -0.03496	  1.21180	710.64099	 14.40	
 11.989	 85.301	  1.14601	  0.61947	  0.51651	  1.01243	  0.17987	 -0.03274	  1.21021	710.67297	 14.40	
 12.013	 66.294	  1.14400	  0.76209	  0.38297	  0.97398	  0.20628	 -0.03165	  1.21222	710.63300	 14.40	
 12.012	 47.388	  1.14317	  0.88937	  0.27157	  0.88778	  0.27223	 -0.03244	  1.21528	710.66803	 14.40	
 11.990	 28.440	  1.13899	  0.98000	  0.19595	  0.76473	  0.37290	 -0.03505	  1.21415	710.65698	 14.40	
 11.991	  9.464	  1.13659	  1.02943	  0.15316	  0.62367	  0.49962	 -0.03875	  1.21637	710.59802	 14.50	
 11.991	 -9.464	  1.12844	  1.02209	  0.15001	  0.47910	  0.63739	 -0.03985	  1.21069	710.64899	 14.50	
 11.990	-28.440	  1.12694	  0.97052	  0.18730	  0.35171	  0.77603	 -0.04373	  1.20961	710.64697	 14.50	
 12.012	-47.388	  1.12947	  0.87875	  0.26095	  0.25167	  0.89838	 -0.04399	  1.21300	710.60303	 14.50	
 12.013	-66.294	  1.13093	  0.75199	  0.36930	  0.18579	  0.98535	 -0.04425	  1.21320	710.61102	 14.50	
 11.989	-85.301	  1.13192	  0.60899	  0.50323	  0.15834	  1.02563	 -0.04462	  1.21166	710.50201	 14.50	
 12.007	-104.200	  1.13605	  0.47029	  0.64784	  0.17182	  1.01654	 -0.04240	  1.21192	710.56897	 14.50	
 12.006	-123.113	  1.13459	  0.34984	  0.78242	  0.22291	  0.95271	 -0.03796	  1.20580	710.62500	 14.50	
 12.013	-142.081	  1.14328	  0.25804	  0.90302	  0.31065	  0.85590	 -0.03341	  1.21130	710.57397	 14.50	
 12.009	-161.059	  1.14495	  0.20217	  0.97667	  0.42924	  0.72161	 -0.03450	  1.20899	710.64899	 14.50	
 16.000	180.000	  1.08302	  0.02335	  1.09655	  0.51558	  0.52744	 -0.05103	  1.21360	710.57599	 14.50	
 15.990	-165.604	  1.07793	  0.03609	  1.07397	  0.37818	  0.66903	 -0.05168	  1.21178	710.56000	 14.50	
 16.002	-151.165	  1.07557	  0.07625	  1.01577	  0.25650	  0.80683	 -0.04985	  1.21328	710.54199	 14.50	
 16.002	-136.836	  1.07288	  0.14479	  0.92324	  0.15436	  0.92951	 -0.05049	  1.21379	710.59497	 14.50	
 15.995	-122.439	  1.06773	  0.23895	  0.80200	  0.07897	  1.02409	 -0.05222	  1.21267	710.64899	 14.50	
 15.993	-107.966	  1.06349	  0.35120	  0.66377	  0.02544	  1.08578	 -0.05462	  1.21228	710.54700	 14.50	
 16.005	-93.629	  1.05984	  0.48241	  0.52079	  0.00036	  1.11210	 -0.05328	  1.21300	710.48700	 14.50	
 15.992	-79.234	  1.05814	  0.62509	  0.38375	  0.00861	  1.10028	 -0.05297	  1.21343	710.54700	 14.50	
 16.009	-64.774	  1.05470	  0.76380	  0.25582	  0.03921	  1.04972	 -0.05241	  1.21329	710.60602	 14.50	
 15.997	-50.364	  1.05003	  0.88908	  0.15156	  0.10155	  0.96310	 -0.05516	  1.20944	710.52802	 14.50	
 15.997	-36.045	  1.05529	  0.99706	  0.07910	  0.19327	  0.85636	 -0.06012	  1.21487	710.52002	 14.50	
 16.000	-21.597	  1.05168	  1.07013	  0.01836	  0.29745	  0.72121	 -0.05718	  1.21167	710.65503	 14.50	
 16.003	 -7.169	  1.05115	  1.10578	 -0.00697	  0.42447	  0.58031	 -0.05791	  1.20892	710.55200	 14.50	
 16.003	  7.169	  1.05786	  1.11306	 -0.00389	  0.56611	  0.44523	 -0.05769	  1.21357	710.54999	 14.50	
 16.000	 21.597	  1.06203	  1.07778	  0.02745	  0.70858	  0.31917	 -0.05680	  1.21301	710.51001	 14.50	
 15.997	 36.045	  1.06416	  1.00463	  0.08177	  0.84017	  0.20855	 -0.05466	  1.21167	710.63300	 14.50	
 15.997	 50.364	  1.06785	  0.90356	  0.16057	  0.95299	  0.12028	 -0.05504	  1.21140	710.58698	 14.50	
 16.009	 64.774	  1.07377	  0.77912	  0.26939	  1.04171	  0.05972	 -0.05510	  1.21379	710.61102	 14.50	
 15.992	 79.234	  1.07730	  0.63923	  0.39514	  1.09241	  0.02533	 -0.05659	  1.21360	710.60699	 14.50	
 16.005	 93.629	  1.08068	  0.49638	  0.53371	  1.10620	  0.01594	 -0.05457	  1.21451	710.55298	 14.50	
 15.993	107.966	  1.08511	  0.36382	  0.67783	  1.08253	  0.03778	 -0.05551	  1.21566	710.59100	 14.50	
 15.995	122.439	  1.08587	  0.24498	  0.81536	  1.01759	  0.08914	 -0.05551	  1.21436	710.55298	 14.50	
 16.002	136.836	  1.08649	  0.15053	  0.93321	  0.92059	  0.16537	 -0.05311	  1.21381	710.56299	 14.50	
 16.002	151.165	  1.08288	  0.08087	  1.01999	  0.79541	  0.26634	 -0.05082	  1.20954	710.58502	 14.50	
 15.990	165.604	  1.08421	  0.03769	  1.07928	  0.65830	  0.38971	 -0.04956	  1.21263	710.51001	 14.50	
 20.003	168.362	  0.99485	 -0.12084	  1.14956	  0.59126	  0.32703	 -0.04766	  1.21421	710.56897	 14.50	
 20.008	156.764	  0.99503	 -0.08763	  1.10515	  0.72873	  0.20511	 -0.04930	  1.21233	710.60101	 14.50	
 20.000	145.147	  0.99600	 -0.03559	  1.03271	  0.85822	  0.10011	 -0.05070	  1.21336	710.49500	 14.50	
 19.995	133.545	  0.99412	  0.03864	  0.93100	  0.97158	  0.01232	 -0.05227	  1.21121	710.49597	 14.50	
 20.009	121.926	  0.99413	  0.13085	  0.81134	  1.06471	 -0.05669	 -0.05492	  1.21270	710.50098	 14.50	
 20.005	110.327	  0.99320	  0.24014	  0.67706	  1.12971	 -0.10495	 -0.05334	  1.21410	710.48999	 14.50	
 19.989	 98.733	  0.99005	  0.36392	  0.53775	  1.16152	 -0.13163	 -0.05412	  1.21283	710.56799	 14.50	
 19.999	 87.075	  0.98567	  0.49848	  0.39593	  1.16552	 -0.13961	 -0.05827	  1.21221	710.53601	 14.50	
 19.992	 75.457	  0.98234	  0.63610	  0.26498	  1.14145	 -0.12595	 -0.05991	  1.21265	710.52002	 14.60	
 20.009	 63.844	  0.97619	  0.77079	  0.14531	  1.08400	 -0.09157	 -0.05830	  1.21014	710.54199	 14.60	
 19.989	 52.269	  0.97061	  0.89377	  0.04407	  0.99834	 -0.03532	 -0.05937	  1.20680	710.61401	 14.60	
 19.999	 40.602	  0.96997	  1.00584	 -0.03999	  0.89357	  0.03950	 -0.06014	  1.21242	710.54199	 14.60	
 20.004	 29.051	  0.96264	  1.08797	 -0.10522	  0.76502	  0.13235	 -0.05895	  1.20970	710.53601	 14.60	
 20.005	 17.433	  0.95820	  1.14351	 -0.14816	  0.62844	  0.24361	 -0.05775	  1.21022	710.61401	 14.60	
 20.006	  5.780	  0.95599	  1.17241	 -0.17314	  0.48675	  0.36972	 -0.05417	  1.21216	710.58698	 14.60	
 20.006	 -5.780	  0.95052	  1.16742	 -0.17546	  0.34957	  0.50117	 -0.05413	  1.20899	710.64600	 14.60	
 20.005	-17.433	  0.95094	  1.13998	 -0.15825	  0.22132	  0.64281	 -0.05068	  1.21234	710.47900	 14.60	
 20.004	-29.051	  0.95015	  1.07858	 -0.11629	  0.10996	  0.77771	 -0.05038	  1.21032	710.59497	 14.60	
 19.999	-40.602	  0.94988	  0.99134	 -0.05541	  0.01393	  0.90164	 -0.04716	  1.21026	710.39899	 14.60	
 19.989	-52.269	  0.95101	  0.87908	  0.02561	 -0.06317	  1.00913	 -0.04382	  1.21017	710.34802	 14.60	
 20.009	-63.844	  0.94656	  0.74803	  0.12385	 -0.11964	  1.08674	 -0.04003	  1.20491	710.46600	 14.60	
 19.992	-75.457	  0.95281	  0.61331	  0.24258	 -0.15264	  1.14296	 -0.03896	  1.20775	710.39301	 14.60	
 19.999	-87.075	  0.95942	  0.47578	  0.37574	 -0.16803	  1.17259	 -0.04073	  1.21407	710.43701	 14.60	
 19.989	-98.733	  0.96369	  0.34264	  0.51557	 -0.15931	  1.16820	 -0.04296	  1.21390	710.46899	 14.60	
 20.005	-110.327	  0.96550	  0.21807	  0.65627	 -0.13103	  1.13277	 -0.04789	  1.21241	710.47101	 14.60	
 20.009	-121.926	  0.97134	  0.11211	  0.79342	 -0.07948	  1.07153	 -0.05072	  1.21314	710.46600	 14.60	
 19.995	-133.545	  0.97340	  0.02310	  0.91448	 -0.00839	  0.97796	 -0.04681	  1.21052	710.50897	 14.60	
 20.000	-145.147	  0.97978	 -0.04463	  1.01840	  0.08362	  0.86615	 -0.04764	  1.21212	710.41498	 14.60	
 20.008	-156.764	  0.98187	 -0.09660	  1.09543	  0.19012	  0.73558	 -0.04668	  1.21165	710.38800	 14.60	
 20.003	-168.362	  0.98466	 -0.12360	  1.14037	  0.31500	  0.59699	 -0.04300	  1.20931	710.40503	 14.60	
 20.000	180.000	  0.99024	 -0.13199	  1.15958	  0.44981	  0.45973	 -0.04455	  1.21146	710.44800	 14.60	
