FileType=PCF
NHL=14
Date=03/15/19	12:05:28
Facility=APL
Serial=16071-3
Customer=NASA
NP=6
Mach=0.080000
Calibration=1:1
CalPts=490
TstPts=95
PortNumbering=AP Standard
Units=Torr C m/s kg/m^3 deg mm 
Theta[deg]	Phi[deg]	P1[Torr]	P2[Torr]	P3[Torr]	P4[Torr]	P5[Torr]	P6[Torr]	Pt[Torr]	Ps[Abs,Torr]	Ts[C]	
  0.000	  0.000	  3.14991	  1.34796	  1.39625	  1.37798	  1.39356	  0.07694	  3.15011	703.53003	 22.00	
  1.691	128.401	  3.14545	  1.25120	  1.46328	  1.47863	  1.27254	  0.07072	  3.14775	703.40002	 22.00	
  1.692	 77.194	  3.14682	  1.36226	  1.35381	  1.50100	  1.25042	  0.07448	  3.14751	703.41998	 22.00	
  1.699	 26.182	  3.14802	  1.46366	  1.25681	  1.42087	  1.32571	  0.07445	  3.14919	703.56000	 22.10	
  1.699	-26.182	  3.14655	  1.46369	  1.26085	  1.30895	  1.44268	  0.07349	  3.14872	703.52002	 22.10	
  1.692	-77.194	  3.14802	  1.37704	  1.34984	  1.23191	  1.52265	  0.06831	  3.15100	703.57001	 22.10	
  1.691	-128.401	  3.14354	  1.24991	  1.46667	  1.25511	  1.48751	  0.06378	  3.14615	703.63000	 22.10	
  1.700	180.000	  3.14910	  1.19482	  1.52543	  1.36145	  1.38284	  0.06213	  3.15149	703.62000	 22.10	
  3.400	180.000	  3.13754	  1.01497	  1.68696	  1.34363	  1.35571	  0.05085	  3.14687	703.69000	 22.10	
  3.388	-152.325	  3.13867	  1.04962	  1.64606	  1.20073	  1.50296	  0.04558	  3.14896	703.70001	 22.10	
  3.397	-124.529	  3.13766	  1.13821	  1.53645	  1.09260	  1.62021	  0.04285	  3.14901	703.58002	 22.10	
  3.399	-96.763	  3.13979	  1.27108	  1.39447	  1.04937	  1.67637	  0.04497	  3.14828	703.65997	 22.10	
  3.394	-69.283	  3.14065	  1.42066	  1.25378	  1.07054	  1.65706	  0.04912	  3.14812	703.63000	 22.10	
  3.400	-41.398	  3.14232	  1.55341	  1.14039	  1.14282	  1.56648	  0.05606	  3.14877	703.54999	 22.10	
  3.401	-14.021	  3.14331	  1.63225	  1.07729	  1.26980	  1.43094	  0.06533	  3.14857	703.53003	 22.10	
  3.401	 14.021	  3.14355	  1.63007	  1.07976	  1.41837	  1.28670	  0.07112	  3.14796	703.62000	 22.10	
  3.400	 41.398	  3.14452	  1.55483	  1.14346	  1.55651	  1.16574	  0.07305	  3.14727	703.66998	 22.10	
  3.394	 69.283	  3.14378	  1.42356	  1.26025	  1.64970	  1.09034	  0.07310	  3.14687	703.65997	 22.10	
  3.399	 96.763	  3.14231	  1.27541	  1.40236	  1.66867	  1.07315	  0.06927	  3.14540	703.70001	 22.10	
  3.397	124.529	  3.14187	  1.14422	  1.54222	  1.61369	  1.11837	  0.06255	  3.14724	703.54999	 22.10	
  3.388	152.325	  3.13803	  1.04917	  1.64820	  1.48957	  1.22006	  0.05682	  3.14554	703.67999	 22.10	
  5.099	161.165	  3.12435	  0.85686	  1.82295	  1.47988	  1.18563	  0.03958	  3.14936	703.65997	 22.10	
  5.109	142.013	  3.12530	  0.92300	  1.74056	  1.63242	  1.05138	  0.04411	  3.14751	703.62000	 22.10	
  5.095	123.033	  3.12743	  1.03181	  1.61413	  1.75010	  0.95481	  0.05136	  3.14732	703.57001	 22.20	
  5.105	104.191	  3.13239	  1.17294	  1.46275	  1.82379	  0.90118	  0.05720	  3.14957	703.53003	 22.20	
  5.093	 85.207	  3.12876	  1.33095	  1.30051	  1.83344	  0.89142	  0.06302	  3.14436	703.62000	 22.20	
  5.104	 66.290	  3.13172	  1.48904	  1.15501	  1.78977	  0.92534	  0.06299	  3.14570	703.59998	 22.20	
  5.094	 47.331	  3.13455	  1.63284	  1.03124	  1.69337	  1.00431	  0.06444	  3.14729	703.58002	 22.20	
  5.089	 28.397	  3.13107	  1.73711	  0.94379	  1.55636	  1.11872	  0.06470	  3.14481	703.59003	 22.20	
  5.096	  9.576	  3.13082	  1.79145	  0.89916	  1.40109	  1.25799	  0.06129	  3.14489	703.62000	 22.20	
  5.096	 -9.576	  3.12920	  1.79279	  0.89738	  1.24085	  1.41234	  0.05400	  3.14615	703.59998	 22.20	
  5.089	-28.397	  3.12766	  1.73522	  0.94117	  1.09540	  1.56816	  0.04731	  3.14712	703.71997	 22.20	
  5.094	-47.331	  3.12428	  1.62517	  1.02733	  0.97736	  1.70289	  0.04077	  3.14489	703.64001	 22.20	
  5.104	-66.290	  3.12332	  1.48214	  1.15071	  0.89974	  1.79957	  0.03347	  3.14658	703.59003	 22.20	
  5.093	-85.207	  3.11918	  1.31997	  1.29892	  0.86845	  1.83821	  0.02823	  3.14522	703.50000	 22.20	
  5.105	-104.191	  3.11907	  1.16266	  1.46007	  0.87736	  1.82533	  0.02499	  3.14620	703.53003	 22.20	
  5.095	-123.033	  3.11722	  1.02574	  1.61100	  0.93444	  1.75431	  0.02518	  3.14520	703.71002	 22.20	
  5.109	-142.013	  3.11841	  0.91834	  1.74024	  1.03075	  1.64036	  0.02832	  3.14644	703.59998	 22.20	
  5.099	-161.165	  3.11834	  0.85421	  1.82135	  1.16675	  1.49095	  0.03134	  3.14554	703.63000	 22.20	
  5.100	180.000	  3.11859	  0.83161	  1.85114	  1.32171	  1.33263	  0.03562	  3.14496	703.69000	 22.20	
  6.800	180.000	  3.09133	  0.64276	  2.00958	  1.28779	  1.30560	  0.01071	  3.14570	703.63000	 22.20	
  6.796	-166.229	  3.08964	  0.65915	  1.98563	  1.13352	  1.46083	  0.00848	  3.14500	703.57001	 22.20	
  6.808	-152.311	  3.08822	  0.70549	  1.92298	  0.98966	  1.61663	  0.00536	  3.14608	703.51001	 22.20	
  6.795	-138.383	  3.08806	  0.78614	  1.82384	  0.87185	  1.75388	  0.00344	  3.14562	703.65997	 22.30	
  6.792	-124.591	  3.08795	  0.89080	  1.69523	  0.77736	  1.86839	 -0.00016	  3.14554	703.48999	 22.20	
  6.787	-110.754	  3.08873	  1.02299	  1.54422	  0.71426	  1.95058	  0.00024	  3.14566	703.47998	 22.30	
  6.800	-96.985	  3.08903	  1.16999	  1.38421	  0.67887	  1.99258	 -0.00031	  3.14410	703.44000	 22.30	
  6.800	-83.015	  3.09318	  1.32801	  1.22973	  0.67879	  1.99506	  0.00237	  3.14569	703.54999	 22.30	
  6.787	-69.246	  3.09517	  1.48991	  1.08360	  0.71396	  1.95146	  0.00824	  3.14621	703.53003	 22.30	
  6.792	-55.409	  3.09774	  1.64089	  0.95278	  0.77786	  1.87047	  0.01334	  3.14509	703.53003	 22.30	
  6.795	-41.617	  3.09941	  1.77328	  0.84651	  0.86947	  1.75774	  0.02010	  3.14661	703.54999	 22.30	
  6.808	-27.689	  3.10013	  1.87435	  0.76539	  0.98703	  1.61841	  0.02453	  3.14612	703.51001	 22.30	
  6.796	-13.771	  3.10426	  1.94486	  0.71383	  1.12895	  1.46452	  0.03426	  3.14960	703.48999	 22.30	
  6.800	  0.000	  3.10682	  1.96275	  0.70538	  1.29015	  1.30624	  0.04030	  3.14697	703.53003	 22.30	
  6.796	 13.771	  3.10810	  1.94140	  0.72205	  1.44735	  1.15728	  0.04548	  3.14699	703.52002	 22.30	
  6.808	 27.689	  3.10931	  1.88215	  0.76503	  1.61032	  1.01046	  0.04973	  3.14746	703.58002	 22.30	
  6.795	 41.617	  3.10660	  1.77850	  0.84420	  1.75200	  0.88878	  0.04999	  3.14329	703.51001	 22.30	
  6.792	 55.409	  3.10957	  1.65231	  0.95353	  1.86584	  0.80303	  0.05178	  3.14747	703.47998	 22.30	
  6.787	 69.246	  3.11110	  1.49959	  1.08842	  1.94717	  0.74267	  0.05061	  3.14781	703.54999	 22.30	
  6.800	 83.015	  3.10615	  1.33942	  1.23307	  1.99158	  0.70379	  0.04609	  3.14396	703.54999	 22.30	
  6.800	 96.985	  3.10674	  1.17845	  1.39334	  1.99096	  0.70542	  0.04214	  3.14836	703.59003	 22.30	
  6.787	110.754	  3.10369	  1.02974	  1.54794	  1.94624	  0.73688	  0.03875	  3.14658	703.44000	 22.30	
  6.792	124.591	  3.10030	  0.89634	  1.69632	  1.86458	  0.79784	  0.03219	  3.14717	703.53998	 22.30	
  6.795	138.383	  3.09970	  0.78805	  1.82743	  1.75081	  0.89211	  0.02891	  3.14947	703.41998	 22.30	
  6.808	152.311	  3.09637	  0.70675	  1.92510	  1.60834	  1.00913	  0.02091	  3.14881	703.63000	 22.30	
  6.796	166.229	  3.09530	  0.66228	  1.98774	  1.44890	  1.15517	  0.01806	  3.14828	703.48999	 22.30	
  8.491	168.704	  3.05379	  0.47018	  2.13881	  1.41537	  1.11159	 -0.00893	  3.14611	703.46997	 22.30	
  8.502	157.493	  3.05531	  0.50689	  2.08736	  1.58126	  0.96087	 -0.00379	  3.14759	703.53998	 22.30	
  8.494	146.194	  3.05719	  0.57448	  2.00127	  1.73701	  0.83006	  0.00127	  3.14741	703.50000	 22.40	
  8.495	135.039	  3.05982	  0.66321	  1.88913	  1.87096	  0.72175	  0.00085	  3.14672	703.54999	 22.30	
  8.487	123.723	  3.06524	  0.77943	  1.75417	  1.98632	  0.63546	  0.00832	  3.14915	703.50000	 22.40	
  8.492	112.575	  3.06400	  0.90959	  1.60011	  2.07314	  0.56641	  0.01370	  3.14746	703.59003	 22.30	
  8.510	101.220	  3.06651	  1.06046	  1.43552	  2.12959	  0.52458	  0.01666	  3.14658	703.46997	 22.40	
  8.500	 90.000	  3.06959	  1.22157	  1.27303	  2.14753	  0.51408	  0.01764	  3.14823	703.53998	 22.40	
  8.510	 78.780	  3.07048	  1.38510	  1.11579	  2.13095	  0.52662	  0.02420	  3.14595	703.52002	 22.40	
  8.492	 67.425	  3.07588	  1.55345	  0.96641	  2.07539	  0.57053	  0.02780	  3.14991	703.59998	 22.40	
  8.487	 56.277	  3.07426	  1.70690	  0.83433	  1.98793	  0.63354	  0.02904	  3.14913	703.66998	 22.40	
  8.495	 44.961	  3.07540	  1.84579	  0.72183	  1.87452	  0.72229	  0.02931	  3.14857	703.63000	 22.40	
  8.494	 33.806	  3.07222	  1.95793	  0.63158	  1.73775	  0.83013	  0.03011	  3.14705	703.59998	 22.40	
  8.502	 22.507	  3.07382	  2.04674	  0.56382	  1.58172	  0.96134	  0.02657	  3.14823	703.53998	 22.40	
  8.491	 11.296	  3.06848	  2.09683	  0.52726	  1.41592	  1.10979	  0.02710	  3.14436	703.60999	 22.40	
  8.500	  0.000	  3.06962	  2.11867	  0.51304	  1.25355	  1.26353	  0.01623	  3.14773	703.66998	 22.40	
  8.491	-11.296	  3.06799	  2.09801	  0.52615	  1.08973	  1.43001	  0.01081	  3.14738	703.48999	 22.40	
  8.502	-22.507	  3.06599	  2.04353	  0.56492	  0.93883	  1.59146	  0.00499	  3.14797	703.57001	 22.40	
  8.494	-33.806	  3.06399	  1.95344	  0.63435	  0.80819	  1.74462	 -0.00301	  3.14718	703.54999	 22.40	
  8.495	-44.961	  3.06352	  1.83861	  0.72066	  0.69556	  1.87978	 -0.01281	  3.15090	703.56000	 22.40	
  8.487	-56.277	  3.06058	  1.69773	  0.83118	  0.60306	  1.99340	 -0.01672	  3.14829	703.50000	 22.40	
  8.492	-67.425	  3.05334	  1.54234	  0.95856	  0.53713	  2.07482	 -0.01805	  3.14318	703.42999	 22.40	
  8.510	-78.780	  3.05357	  1.37522	  1.10963	  0.49389	  2.13275	 -0.02193	  3.14732	703.50000	 22.40	
  8.500	-90.000	  3.05034	  1.21045	  1.26771	  0.48454	  2.14750	 -0.02580	  3.14489	703.62000	 22.40	
  8.510	-101.220	  3.04921	  1.05140	  1.42997	  0.49493	  2.13215	 -0.02817	  3.14743	703.50000	 22.40	
  8.492	-112.575	  3.04686	  0.90095	  1.59580	  0.53804	  2.07607	 -0.02877	  3.14514	703.51001	 22.40	
  8.487	-123.723	  3.04829	  0.77169	  1.74640	  0.60326	  1.99264	 -0.02777	  3.14770	703.50000	 22.40	
  8.495	-135.039	  3.04776	  0.66040	  1.88377	  0.69327	  1.87803	 -0.02310	  3.14647	703.44000	 22.40	
  8.494	-146.194	  3.04714	  0.57057	  1.99787	  0.80648	  1.74266	 -0.02096	  3.14648	703.46002	 22.40	
  8.502	-157.493	  3.04985	  0.50439	  2.08595	  0.93736	  1.59356	 -0.01770	  3.14710	703.56000	 22.40	
  8.491	-168.704	  3.04925	  0.46664	  2.13845	  1.08978	  1.43106	 -0.01534	  3.14596	703.45001	 22.40	
  8.500	180.000	  3.05052	  0.45527	  2.15616	  1.25106	  1.26902	 -0.01292	  3.14547	703.53003	 22.40	
 10.200	180.000	  2.99690	  0.26621	  2.29584	  1.20528	  1.22111	 -0.04282	  3.14457	703.45001	 22.40	
 10.191	-170.497	  2.99595	  0.27610	  2.28107	  1.04059	  1.38588	 -0.04483	  3.14427	703.35999	 22.40	
 10.210	-161.034	  2.99559	  0.30657	  2.23433	  0.88560	  1.55241	 -0.04413	  3.14670	703.40002	 22.40	
 10.194	-151.526	  2.99545	  0.36139	  2.15910	  0.74611	  1.71109	 -0.04702	  3.14885	703.48999	 22.40	
 10.190	-142.105	  2.99636	  0.43564	  2.05945	  0.62217	  1.85958	 -0.04997	  3.14896	703.44000	 22.40	
 10.215	-132.646	  2.99398	  0.53038	  1.93406	  0.51379	  1.99349	 -0.05079	  3.14781	703.46002	 22.40	
 10.203	-123.092	  2.99210	  0.64450	  1.78849	  0.42504	  2.10588	 -0.05215	  3.14574	703.48999	 22.40	
 10.192	-113.678	  2.99477	  0.77454	  1.63648	  0.36177	  2.19266	 -0.05369	  3.14633	703.50000	 22.40	
 10.208	-104.249	  2.99610	  0.92329	  1.47156	  0.32152	  2.25216	 -0.05361	  3.14522	703.48999	 22.40	
 10.210	-94.801	  2.99805	  1.08156	  1.30452	  0.29721	  2.28434	 -0.05297	  3.14597	703.46002	 22.50	
 10.210	-85.199	  3.00056	  1.24892	  1.13874	  0.29666	  2.28488	 -0.05117	  3.14676	703.54999	 22.50	
 10.208	-75.751	  3.00206	  1.41632	  0.98233	  0.31909	  2.25291	 -0.04761	  3.14579	703.51001	 22.40	
 10.192	-66.322	  3.00454	  1.58284	  0.83769	  0.36252	  2.19340	 -0.04754	  3.14614	703.54999	 22.50	
 10.203	-56.908	  3.00776	  1.73863	  0.70783	  0.42319	  2.11050	 -0.04579	  3.14798	703.37000	 22.50	
 10.215	-47.354	  3.01085	  1.88646	  0.59407	  0.51270	  1.99793	 -0.04362	  3.14876	703.54999	 22.50	
 10.190	-37.895	  3.01303	  2.01307	  0.49960	  0.62285	  1.86005	 -0.03689	  3.14707	703.46997	 22.50	
 10.194	-28.474	  3.01485	  2.11805	  0.42474	  0.74762	  1.71116	 -0.02702	  3.14631	703.53998	 22.50	
 10.210	-18.966	  3.01448	  2.19553	  0.36852	  0.88605	  1.55159	 -0.02137	  3.14607	703.48999	 22.50	
 10.191	 -9.503	  3.01705	  2.24108	  0.34016	  1.04019	  1.38902	 -0.01525	  3.14572	703.54999	 22.50	
 10.200	  0.000	  3.02186	  2.26061	  0.32732	  1.20473	  1.22283	 -0.00881	  3.14789	703.42999	 22.50	
 10.191	  9.503	  3.02163	  2.24469	  0.33780	  1.37141	  1.06214	 -0.00102	  3.14618	703.48999	 22.50	
 10.210	 18.966	  3.02331	  2.20109	  0.36848	  1.54089	  0.91115	  0.00608	  3.14812	703.45001	 22.50	
 10.194	 28.474	  3.02391	  2.12297	  0.42457	  1.70332	  0.77224	  0.00752	  3.14706	703.47998	 22.50	
 10.190	 37.895	  3.02707	  2.02091	  0.50032	  1.85336	  0.65422	  0.00376	  3.14849	703.53998	 22.50	
 10.215	 47.354	  3.02675	  1.89786	  0.59651	  1.99242	  0.54637	  0.00477	  3.14874	703.50000	 22.50	
 10.203	 56.908	  3.02631	  1.75004	  0.71319	  2.10680	  0.45992	  0.00338	  3.14809	703.40997	 22.50	
 10.192	 66.322	  3.02441	  1.59357	  0.84492	  2.19503	  0.39589	  0.00547	  3.14688	703.48999	 22.50	
 10.208	 75.751	  3.02179	  1.42789	  0.98935	  2.25573	  0.35268	  0.00157	  3.14522	703.47998	 22.50	
 10.210	 85.199	  3.02131	  1.25965	  1.14859	  2.28510	  0.33314	 -0.00321	  3.14658	703.46002	 22.50	
 10.210	 94.801	  3.01789	  1.09234	  1.31202	  2.28469	  0.33137	 -0.00766	  3.14505	703.41998	 22.50	
 10.208	104.249	  3.01705	  0.93345	  1.47932	  2.25502	  0.35119	 -0.01002	  3.14748	703.59003	 22.50	
 10.192	113.678	  3.01268	  0.78794	  1.64098	  2.19220	  0.39591	 -0.01089	  3.14609	703.44000	 22.50	
 10.203	123.092	  3.01229	  0.65619	  1.79570	  2.10519	  0.45899	 -0.01943	  3.14725	703.53003	 22.50	
 10.215	132.646	  3.00776	  0.54036	  1.93888	  1.98969	  0.54713	 -0.02271	  3.14631	703.62000	 22.50	
 10.190	142.105	  3.00709	  0.44437	  2.06323	  1.85243	  0.65470	 -0.02464	  3.14762	703.50000	 22.50	
 10.194	151.526	  3.00303	  0.36641	  2.16297	  1.70303	  0.77255	 -0.02667	  3.14653	703.48999	 22.50	
 10.210	161.034	  3.00207	  0.30877	  2.23980	  1.54037	  0.91158	 -0.03450	  3.14928	703.48999	 22.50	
 10.191	170.497	  3.00296	  0.28047	  2.28191	  1.37300	  1.06571	 -0.03920	  3.14809	703.42999	 22.50	
 11.899	171.783	  2.93702	  0.09384	  2.41444	  1.31933	  1.01138	 -0.06408	  3.14762	703.52002	 22.50	
 11.890	163.610	  2.93797	  0.11998	  2.37520	  1.48996	  0.85527	 -0.06493	  3.14589	703.53003	 22.50	
 11.889	155.445	  2.93934	  0.16779	  2.30993	  1.65778	  0.71525	 -0.05737	  3.14660	703.53998	 22.50	
 11.909	147.299	  2.94167	  0.23112	  2.22235	  1.81409	  0.58825	 -0.05632	  3.14724	703.48999	 22.50	
 11.902	139.148	  2.94384	  0.31297	  2.11139	  1.96096	  0.47397	 -0.05581	  3.14736	703.53003	 22.50	
 11.894	130.867	  2.94714	  0.41502	  1.97932	  2.09480	  0.37526	 -0.05222	  3.14716	703.53998	 22.50	
 11.897	122.732	  2.94905	  0.53237	  1.83219	  2.20868	  0.29416	 -0.04771	  3.14623	703.62000	 22.50	
 11.903	114.597	  2.95434	  0.66235	  1.67776	  2.29912	  0.23220	 -0.04174	  3.14851	703.59998	 22.50	
 11.893	106.346	  2.95486	  0.80564	  1.51343	  2.36305	  0.18874	 -0.03912	  3.14523	703.46002	 22.50	
 11.892	 98.155	  2.96055	  0.96361	  1.34616	  2.40614	  0.16087	 -0.03914	  3.14709	703.46997	 22.50	
 11.900	 90.000	  2.96261	  1.12297	  1.18087	  2.42124	  0.14965	 -0.03897	  3.14827	703.46002	 22.50	
 11.892	 81.845	  2.96312	  1.29193	  1.01938	  2.40654	  0.16050	 -0.03302	  3.14647	703.50000	 22.50	
 11.893	 73.654	  2.96515	  1.46262	  0.86396	  2.36494	  0.18934	 -0.02845	  3.14461	703.60999	 22.50	
 11.903	 65.403	  2.96806	  1.63139	  0.71792	  2.30144	  0.23127	 -0.02529	  3.14852	703.63000	 22.50	
 11.897	 57.268	  2.96620	  1.78876	  0.58763	  2.21208	  0.29306	 -0.02394	  3.14734	703.66998	 22.50	
 11.894	 49.133	  2.96541	  1.93545	  0.47053	  2.09782	  0.37341	 -0.02336	  3.14504	703.48999	 22.50	
 11.902	 40.852	  2.96586	  2.07163	  0.36961	  1.96281	  0.47440	 -0.02202	  3.14607	703.57001	 22.50	
 11.909	 32.701	  2.96163	  2.18146	  0.28504	  1.81158	  0.58644	 -0.02160	  3.14260	703.60999	 22.60	
 11.889	 24.555	  2.96298	  2.27154	  0.22361	  1.65844	  0.71151	 -0.01895	  3.14589	703.53003	 22.50	
 11.890	 16.390	  2.96361	  2.33650	  0.18031	  1.49231	  0.85440	 -0.02264	  3.14591	703.51001	 22.50	
 11.899	  8.217	  2.96414	  2.37835	  0.15347	  1.31986	  1.01028	 -0.03016	  3.14796	703.46997	 22.60	
 11.900	  0.000	  2.95927	  2.39186	  0.14401	  1.14980	  1.17357	 -0.03404	  3.14479	703.51001	 22.60	
 11.899	 -8.217	  2.95992	  2.37761	  0.15487	  0.98643	  1.34087	 -0.04151	  3.14765	703.52002	 22.60	
 11.890	-16.390	  2.95603	  2.33307	  0.18166	  0.82833	  1.51033	 -0.04742	  3.14473	703.53003	 22.60	
 11.889	-24.555	  2.95527	  2.26629	  0.22671	  0.68887	  1.66948	 -0.05095	  3.14692	703.56000	 22.60	
 11.909	-32.701	  2.95196	  2.17922	  0.28283	  0.55340	  1.82630	 -0.06114	  3.14748	703.53998	 22.60	
 11.902	-40.852	  2.94746	  2.06175	  0.36575	  0.43541	  1.97178	 -0.06435	  3.14614	703.52002	 22.60	
 11.894	-49.133	  2.94756	  1.92653	  0.46807	  0.33896	  2.10093	 -0.06923	  3.14640	703.58002	 22.60	
 11.897	-57.268	  2.94649	  1.77720	  0.58148	  0.25860	  2.20863	 -0.07088	  3.14733	703.53998	 22.60	
 11.903	-65.403	  2.94153	  1.61733	  0.71031	  0.19212	  2.29797	 -0.07008	  3.14486	703.51001	 22.60	
 11.893	-73.654	  2.94175	  1.45083	  0.85235	  0.14615	  2.36455	 -0.06984	  3.14740	703.45001	 22.60	
 11.892	-81.845	  2.93743	  1.27780	  1.00766	  0.11767	  2.40444	 -0.06746	  3.14596	703.46997	 22.60	
 11.900	-90.000	  2.93801	  1.11312	  1.16772	  0.10923	  2.41961	 -0.07065	  3.14821	703.59003	 22.60	
 11.892	-98.155	  2.93569	  0.95050	  1.33430	  0.11935	  2.40586	 -0.06979	  3.14922	703.40002	 22.60	
 11.893	-106.346	  2.93135	  0.79100	  1.50487	  0.14459	  2.36489	 -0.07148	  3.14657	703.53998	 22.60	
 11.903	-114.597	  2.93094	  0.64444	  1.67310	  0.19000	  2.29951	 -0.07075	  3.14804	703.66998	 22.60	
 11.897	-122.732	  2.93064	  0.51786	  1.83057	  0.25823	  2.20802	 -0.07020	  3.14742	703.65002	 22.60	
 11.894	-130.867	  2.92969	  0.40052	  1.97581	  0.33536	  2.09849	 -0.07081	  3.14698	703.63000	 22.60	
 11.902	-139.148	  2.92970	  0.30461	  2.10296	  0.43906	  1.96503	 -0.07082	  3.14603	703.60999	 22.60	
 11.909	-147.299	  2.93110	  0.22262	  2.21683	  0.55529	  1.82169	 -0.07151	  3.14960	703.65997	 22.60	
 11.889	-155.445	  2.93008	  0.16180	  2.30337	  0.68913	  1.66056	 -0.06995	  3.14561	703.54999	 22.60	
 11.890	-163.610	  2.93507	  0.11955	  2.37050	  0.83093	  1.50256	 -0.07024	  3.14882	703.53998	 22.60	
 11.899	-171.783	  2.93487	  0.08979	  2.41233	  0.98597	  1.33515	 -0.06994	  3.14877	703.54999	 22.60	
 11.900	180.000	  2.93473	  0.08316	  2.42568	  1.15244	  1.16771	 -0.06935	  3.14651	703.56000	 22.60	
 13.600	180.000	  2.86065	 -0.09746	  2.54660	  1.09540	  1.10450	 -0.09414	  3.14773	703.65997	 22.60	
 13.608	-172.853	  2.85933	 -0.09193	  2.53654	  0.92979	  1.26938	 -0.09408	  3.14785	703.60999	 22.60	
 13.611	-165.583	  2.85715	 -0.07054	  2.49969	  0.77054	  1.44080	 -0.09116	  3.14620	703.62000	 22.60	
 13.601	-158.353	  2.85810	 -0.03356	  2.44137	  0.62477	  1.60365	 -0.09340	  3.15011	703.53998	 22.60	
 13.609	-151.210	  2.85520	  0.02028	  2.35822	  0.48779	  1.76639	 -0.09126	  3.14587	703.71002	 22.60	
 13.611	-143.999	  2.85438	  0.08745	  2.25697	  0.36377	  1.92107	 -0.08815	  3.14775	703.70001	 22.60	
 13.601	-136.825	  2.85506	  0.17528	  2.13555	  0.25950	  2.06140	 -0.08738	  3.14801	703.66998	 22.60	
 13.596	-129.640	  2.85807	  0.27322	  2.00447	  0.16684	  2.19008	 -0.08699	  3.15137	703.73999	 22.60	
 13.611	-122.431	  2.85420	  0.38762	  1.85180	  0.08571	  2.30249	 -0.08601	  3.14742	703.66998	 22.60	
 13.604	-115.211	  2.85648	  0.51839	  1.69336	  0.02256	  2.39582	 -0.08491	  3.14752	703.65997	 22.60	
 13.595	-108.042	  2.85537	  0.65621	  1.52711	 -0.02668	  2.46491	 -0.08605	  3.14774	703.71997	 22.60	
 13.607	-100.793	  2.85656	  0.80752	  1.35927	 -0.05948	  2.51479	 -0.08335	  3.14728	703.71997	 22.60	
 13.601	-93.617	  2.85879	  0.96820	  1.18994	 -0.07315	  2.53636	 -0.08613	  3.14607	703.71997	 22.60	
 13.601	-86.383	  2.86306	  1.13597	  1.02616	 -0.07523	  2.53824	 -0.08466	  3.14874	703.63000	 22.60	
 13.607	-79.207	  2.86539	  1.30659	  0.86555	 -0.05967	  2.51291	 -0.08497	  3.14712	703.78003	 22.60	
 13.595	-71.958	  2.86662	  1.47888	  0.71412	 -0.02577	  2.46365	 -0.08791	  3.14587	703.78998	 22.60	
 13.604	-64.789	  2.86996	  1.64771	  0.57541	  0.02011	  2.39708	 -0.08492	  3.14748	703.63000	 22.60	
 13.611	-57.569	  2.87130	  1.80883	  0.44853	  0.08382	  2.30501	 -0.08613	  3.14642	703.63000	 22.60	
 13.596	-50.360	  2.87493	  1.96105	  0.33528	  0.16255	  2.19656	 -0.08779	  3.14808	703.53998	 22.70	
 13.601	-43.175	  2.87626	  2.09967	  0.23396	  0.25435	  2.07043	 -0.08768	  3.14867	703.62000	 22.70	
 13.611	-36.001	  2.87758	  2.22085	  0.14764	  0.36152	  1.92791	 -0.08607	  3.14838	703.57001	 22.60	
 13.609	-28.790	  2.87854	  2.32378	  0.08106	  0.48506	  1.77611	 -0.08160	  3.14717	703.53998	 22.70	
 13.601	-21.647	  2.87982	  2.40594	  0.02778	  0.62027	  1.61280	 -0.07626	  3.14531	703.52002	 22.70	
 13.611	-14.417	  2.88295	  2.47057	 -0.01277	  0.76653	  1.44604	 -0.07369	  3.14785	703.53003	 22.70	
 13.608	 -7.147	  2.88493	  2.50717	 -0.03477	  0.92567	  1.27684	 -0.07111	  3.14743	703.57001	 22.70	
 13.600	  0.000	  2.88718	  2.51938	 -0.04123	  1.09041	  1.10999	 -0.06583	  3.14651	703.50000	 22.70	
 13.608	  7.147	  2.88998	  2.50829	 -0.03239	  1.25729	  0.95025	 -0.05913	  3.14804	703.46997	 22.70	
 13.611	 14.417	  2.89245	  2.47463	 -0.01169	  1.43017	  0.79384	 -0.05473	  3.14871	703.52002	 22.70	
 13.601	 21.647	  2.89267	  2.41212	  0.02906	  1.59976	  0.64817	 -0.05166	  3.14671	703.58002	 22.70	
 13.609	 28.790	  2.89361	  2.33104	  0.08019	  1.76261	  0.51686	 -0.05152	  3.14740	703.62000	 22.70	
 13.611	 36.001	  2.89321	  2.22851	  0.15156	  1.91833	  0.39809	 -0.05418	  3.14500	703.54999	 22.70	
 13.601	 43.175	  2.89342	  2.10647	  0.23832	  2.06473	  0.29117	 -0.05568	  3.14561	703.58002	 22.70	
 13.596	 50.360	  2.89718	  1.97102	  0.34017	  2.19497	  0.20168	 -0.05699	  3.14849	703.46002	 22.70	
 13.611	 57.569	  2.89610	  1.82096	  0.45568	  2.30643	  0.12574	 -0.05800	  3.14786	703.52002	 22.70	
 13.604	 64.789	  2.89367	  1.65982	  0.58254	  2.40193	  0.05946	 -0.05872	  3.14733	703.48999	 22.70	
 13.595	 71.958	  2.89328	  1.49495	  0.72462	  2.46908	  0.01812	 -0.06211	  3.14596	703.46997	 22.70	
 13.607	 79.207	  2.89152	  1.32335	  0.87626	  2.51915	 -0.01178	 -0.06561	  3.14615	703.52002	 22.70	
 13.601	 86.383	  2.88872	  1.14922	  1.03706	  2.54009	 -0.02827	 -0.07258	  3.14482	703.51001	 22.70	
 13.601	 93.617	  2.88822	  0.98594	  1.20090	  2.54049	 -0.02556	 -0.07293	  3.14645	703.59003	 22.70	
 13.607	100.793	  2.88426	  0.82361	  1.37076	  2.51495	 -0.01170	 -0.07344	  3.14560	703.53998	 22.70	
 13.595	108.042	  2.88250	  0.67058	  1.53994	  2.46530	  0.02073	 -0.07338	  3.14681	703.53998	 22.70	
 13.604	115.211	  2.87837	  0.53193	  1.70034	  2.39464	  0.06625	 -0.07613	  3.14466	703.53998	 22.70	
 13.611	122.431	  2.87739	  0.40313	  1.85904	  2.30298	  0.12622	 -0.07967	  3.14722	703.53998	 22.70	
 13.596	129.640	  2.87239	  0.28592	  2.00841	  2.19240	  0.20234	 -0.08337	  3.14634	703.54999	 22.70	
 13.601	136.825	  2.87023	  0.18482	  2.14344	  2.06381	  0.29153	 -0.08692	  3.14695	703.54999	 22.70	
 13.611	143.999	  2.86622	  0.10021	  2.26297	  1.91743	  0.40087	 -0.08667	  3.14502	703.59998	 22.70	
 13.609	151.210	  2.86338	  0.02724	  2.36302	  1.76105	  0.51733	 -0.08963	  3.14332	703.56000	 22.70	
 13.601	158.353	  2.86274	 -0.02654	  2.44323	  1.60034	  0.64826	 -0.08874	  3.14499	703.51001	 22.70	
 13.611	165.583	  2.85856	 -0.06947	  2.49939	  1.42973	  0.78998	 -0.09203	  3.14498	703.50000	 22.70	
 13.608	172.853	  2.85768	 -0.09140	  2.53255	  1.25700	  0.94678	 -0.09465	  3.14244	703.47998	 22.70	
 15.298	173.587	  2.77619	 -0.26248	  2.64588	  1.19397	  0.88275	 -0.11787	  3.14791	703.56000	 22.70	
 15.291	167.167	  2.77698	 -0.24272	  2.61570	  1.36584	  0.72914	 -0.12072	  3.14779	703.48999	 22.70	
 15.307	160.676	  2.77646	 -0.21056	  2.56401	  1.53519	  0.58227	 -0.12037	  3.14627	703.51001	 22.70	
 15.300	154.261	  2.78006	 -0.16191	  2.49389	  1.69856	  0.45183	 -0.11822	  3.14777	703.47998	 22.70	
 15.288	147.854	  2.78052	 -0.09920	  2.39825	  1.85997	  0.32941	 -0.11608	  3.14576	703.45001	 22.70	
 15.293	141.428	  2.78279	 -0.02541	  2.29083	  2.01157	  0.22036	 -0.11787	  3.14621	703.62000	 22.70	
 15.299	134.985	  2.78765	  0.06299	  2.16738	  2.15302	  0.12238	 -0.11578	  3.14664	703.54999	 22.70	
 15.305	128.583	  2.78969	  0.16130	  2.02928	  2.27700	  0.03771	 -0.11664	  3.14693	703.58002	 22.70	
 15.309	122.142	  2.79269	  0.27239	  1.87922	  2.39120	 -0.03815	 -0.11219	  3.14891	703.59998	 22.70	
 15.304	115.711	  2.79511	  0.40281	  1.71914	  2.48373	 -0.09282	 -0.10976	  3.14656	703.53998	 22.70	
 15.297	109.291	  2.79951	  0.53902	  1.55635	  2.55769	 -0.13903	 -0.10895	  3.14754	703.57001	 22.70	
 15.293	102.897	  2.80103	  0.68227	  1.38979	  2.60786	 -0.17229	 -0.10833	  3.14632	703.51001	 22.70	
 15.293	 96.458	  2.80353	  0.84238	  1.21776	  2.64302	 -0.19323	 -0.10750	  3.14495	703.50000	 22.70	
 15.300	 90.000	  2.80590	  1.00422	  1.05273	  2.65696	 -0.20237	 -0.10710	  3.14643	703.53003	 22.70	
 15.293	 83.542	  2.81018	  1.17220	  0.89368	  2.64638	 -0.19269	 -0.10536	  3.14694	703.62000	 22.70	
 15.293	 77.103	  2.80779	  1.34163	  0.73336	  2.61356	 -0.17679	 -0.10305	  3.14541	703.52002	 22.70	
 15.297	 70.709	  2.80985	  1.51088	  0.58928	  2.55990	 -0.14491	 -0.09965	  3.14508	703.48999	 22.70	
 15.304	 64.289	  2.81216	  1.67715	  0.45350	  2.48839	 -0.09975	 -0.09553	  3.14709	703.48999	 22.70	
 15.309	 57.858	  2.81440	  1.84040	  0.32650	  2.39465	 -0.03866	 -0.09616	  3.14794	703.50000	 22.70	
 15.305	 51.417	  2.81317	  1.99267	  0.21344	  2.28152	  0.03493	 -0.09315	  3.14570	703.46002	 22.70	
 15.299	 45.015	  2.81320	  2.13322	  0.11153	  2.15402	  0.11888	 -0.09365	  3.14570	703.52002	 22.70	
 15.293	 38.572	  2.81367	  2.25714	  0.02442	  2.01536	  0.21539	 -0.09048	  3.14611	703.57001	 22.70	
 15.288	 32.146	  2.81402	  2.37023	 -0.04656	  1.86234	  0.32879	 -0.08251	  3.14591	703.60999	 22.70	
 15.300	 25.739	  2.81045	  2.46217	 -0.11132	  1.69754	  0.44956	 -0.08290	  3.14375	703.59998	 22.70	
 15.307	 19.324	  2.81004	  2.53755	 -0.15887	  1.53500	  0.58036	 -0.08518	  3.14664	703.60999	 22.70	
 15.291	 12.833	  2.80966	  2.59066	 -0.19044	  1.36222	  0.73067	 -0.08726	  3.14645	703.57001	 22.70	
 15.298	  6.413	  2.80787	  2.62132	 -0.20850	  1.18973	  0.88813	 -0.08937	  3.14652	703.62000	 22.70	
 15.300	  0.000	  2.80664	  2.63280	 -0.21534	  1.02559	  1.04554	 -0.09376	  3.14721	703.51001	 22.80	
 15.298	 -6.413	  2.79970	  2.61690	 -0.20670	  0.86108	  1.21185	 -0.09493	  3.14231	703.53998	 22.80	
 15.291	-12.833	  2.80155	  2.58704	 -0.19004	  0.70236	  1.38413	 -0.09849	  3.14636	703.51001	 22.80	
 15.307	-19.324	  2.79781	  2.53305	 -0.15831	  0.55478	  1.55059	 -0.10045	  3.14680	703.54999	 22.80	
 15.300	-25.739	  2.79796	  2.45708	 -0.11192	  0.41761	  1.71541	 -0.09940	  3.14766	703.59998	 22.80	
 15.288	-32.146	  2.79182	  2.35743	 -0.05263	  0.28976	  1.87126	 -0.10245	  3.14234	703.51001	 22.80	
 15.293	-38.572	  2.79162	  2.24729	  0.02083	  0.17816	  2.02075	 -0.10223	  3.14482	703.53003	 22.80	
 15.299	-45.015	  2.79048	  2.12014	  0.10808	  0.07621	  2.16248	 -0.10178	  3.14653	703.63000	 22.80	
 15.305	-51.417	  2.78868	  1.97938	  0.20484	 -0.01243	  2.28712	 -0.09956	  3.14751	703.60999	 22.80	
 15.309	-57.858	  2.78429	  1.82418	  0.31767	 -0.09032	  2.39754	 -0.09848	  3.14578	703.62000	 22.80	
 15.304	-64.289	  2.78254	  1.65807	  0.44344	 -0.15091	  2.48706	 -0.09624	  3.14512	703.51001	 22.80	
 15.297	-70.709	  2.78243	  1.49319	  0.57948	 -0.19473	  2.55722	 -0.09258	  3.14662	703.53003	 22.80	
 15.293	-77.103	  2.77910	  1.32533	  0.72182	 -0.22542	  2.60623	 -0.09203	  3.14530	703.54999	 22.80	
 15.293	-83.542	  2.77689	  1.15252	  0.87808	 -0.24631	  2.63737	 -0.09141	  3.14546	703.51001	 22.80	
 15.300	-90.000	  2.77536	  0.98578	  1.04056	 -0.24958	  2.64746	 -0.09084	  3.14584	703.63000	 22.80	
 15.293	-96.458	  2.77601	  0.82583	  1.20750	 -0.24107	  2.63859	 -0.08949	  3.14723	703.59998	 22.80	
 15.293	-102.897	  2.77319	  0.66717	  1.37668	 -0.22286	  2.60535	 -0.09017	  3.14628	703.59998	 22.80	
 15.297	-109.291	  2.76962	  0.51850	  1.54296	 -0.19021	  2.55181	 -0.08801	  3.14614	703.50000	 22.80	
 15.304	-115.711	  2.76799	  0.38188	  1.70789	 -0.14467	  2.47830	 -0.08988	  3.14537	703.58002	 22.80	
 15.309	-122.142	  2.76876	  0.25520	  1.86903	 -0.08305	  2.38689	 -0.09434	  3.14759	703.52002	 22.80	
 15.305	-128.583	  2.76635	  0.14111	  2.01911	 -0.00853	  2.27321	 -0.09287	  3.14737	703.54999	 22.80	
 15.299	-134.985	  2.76748	  0.04449	  2.15734	  0.08069	  2.14725	 -0.09749	  3.14636	703.62000	 22.80	
 15.293	-141.428	  2.77023	 -0.04090	  2.28553	  0.18338	  2.01044	 -0.09771	  3.14860	703.62000	 22.80	
 15.288	-147.854	  2.76788	 -0.11442	  2.39289	  0.29524	  1.85762	 -0.10045	  3.14647	703.51001	 22.80	
 15.300	-154.261	  2.77060	 -0.17150	  2.48791	  0.42154	  1.70092	 -0.10282	  3.14834	703.63000	 22.80	
 15.307	-160.676	  2.77167	 -0.21746	  2.56081	  0.55979	  1.53614	 -0.10669	  3.14725	703.57001	 22.80	
 15.291	-167.167	  2.77088	 -0.24601	  2.61071	  0.70835	  1.36912	 -0.11013	  3.14546	703.63000	 22.80	
 15.298	-173.587	  2.77398	 -0.26657	  2.64606	  0.86339	  1.20250	 -0.11213	  3.14643	703.56000	 22.80	
 15.300	180.000	  2.77577	 -0.27127	  2.65917	  1.02767	  1.04034	 -0.11288	  3.14863	703.46002	 22.80	
 17.000	180.000	  2.67738	 -0.43472	  2.75415	  0.95923	  0.96850	 -0.13225	  3.14493	703.44000	 22.80	
 16.990	-174.179	  2.67738	 -0.42986	  2.74580	  0.79797	  1.13061	 -0.12666	  3.14708	703.42999	 22.80	
 17.009	-168.383	  2.67526	 -0.41395	  2.71690	  0.64355	  1.29794	 -0.12417	  3.14641	703.48999	 22.80	
 17.000	-162.596	  2.67328	 -0.38664	  2.66713	  0.49655	  1.45968	 -0.11830	  3.14381	703.53003	 22.80	
 16.990	-156.759	  2.67191	 -0.34943	  2.60036	  0.35771	  1.62746	 -0.11584	  3.14503	703.63000	 22.80	
 16.995	-150.919	  2.67176	 -0.29863	  2.51606	  0.22799	  1.79011	 -0.10892	  3.14619	703.41998	 22.80	
 16.988	-145.161	  2.67252	 -0.23771	  2.41694	  0.11429	  1.94202	 -0.10651	  3.14743	703.50000	 22.80	
 17.014	-139.343	  2.66952	 -0.16776	  2.29976	  0.00182	  2.09050	 -0.10619	  3.14572	703.53998	 22.80	
 17.007	-133.546	  2.67232	 -0.07923	  2.17135	 -0.09149	  2.23003	 -0.09814	  3.14824	703.58002	 22.80	
 17.001	-127.699	  2.67275	  0.01945	  2.02702	 -0.17324	  2.35191	 -0.09960	  3.14893	703.58002	 22.80	
 17.006	-121.937	  2.67277	  0.12553	  1.87789	 -0.24607	  2.46316	 -0.09542	  3.14962	703.54999	 22.80	
 17.002	-116.134	  2.67189	  0.24944	  1.71689	 -0.30156	  2.55514	 -0.09508	  3.14662	703.64001	 22.80	
 17.001	-110.310	  2.67333	  0.38329	  1.55138	 -0.34959	  2.62994	 -0.09385	  3.14575	703.48999	 22.80	
 16.988	-104.517	  2.67559	  0.52384	  1.38585	 -0.38341	  2.68854	 -0.09306	  3.14587	703.63000	 22.80	
 17.008	-98.662	  2.67612	  0.67594	  1.21506	 -0.40834	  2.72569	 -0.09157	  3.14528	703.70001	 22.80	
 16.996	-92.909	  2.68082	  0.83591	  1.05082	 -0.41722	  2.74748	 -0.09457	  3.14771	703.64001	 22.80	
 16.996	-87.091	  2.68171	  0.99950	  0.88900	 -0.41808	  2.74727	 -0.09549	  3.14626	703.53003	 22.80	
 17.012	-81.253	  2.68264	  1.16586	  0.73010	 -0.41243	  2.73212	 -0.09770	  3.14806	703.48999	 22.80	
 16.988	-75.483	  2.68496	  1.33742	  0.58299	 -0.38383	  2.69085	 -0.09733	  3.14555	703.59003	 22.80	
 17.001	-69.690	  2.68799	  1.50819	  0.44057	 -0.34870	  2.63395	 -0.10137	  3.14486	703.54999	 22.80	
 17.002	-63.866	  2.68847	  1.67412	  0.30853	 -0.30587	  2.56229	 -0.10711	  3.14543	703.57001	 22.80	
 17.006	-58.063	  2.69167	  1.83514	  0.18763	 -0.24838	  2.47204	 -0.10669	  3.14606	703.48999	 22.80	
 17.001	-52.301	  2.69197	  1.98687	  0.08173	 -0.17984	  2.36779	 -0.11101	  3.14561	703.53003	 22.80	
 17.007	-46.454	  2.69275	  2.13336	 -0.01981	 -0.09636	  2.24062	 -0.11217	  3.14387	703.54999	 22.80	
 17.014	-40.657	  2.69557	  2.26715	 -0.11004	 -0.00578	  2.10653	 -0.11385	  3.14629	703.57001	 22.80	
 16.988	-34.839	  2.69923	  2.38567	 -0.17999	  0.10577	  1.95885	 -0.11651	  3.14585	703.51001	 22.80	
 16.995	-29.081	  2.70077	  2.48746	 -0.24168	  0.21946	  1.80724	 -0.11904	  3.14596	703.57001	 22.80	
 16.990	-23.241	  2.70357	  2.57523	 -0.29356	  0.34819	  1.64489	 -0.11691	  3.14547	703.54999	 22.80	
 17.000	-17.404	  2.70531	  2.64489	 -0.33237	  0.48900	  1.47887	 -0.11880	  3.14568	703.51001	 22.80	
 17.009	-11.617	  2.70795	  2.69435	 -0.35839	  0.63590	  1.31466	 -0.12086	  3.14624	703.48999	 22.80	
 16.990	 -5.821	  2.71269	  2.72456	 -0.37591	  0.79171	  1.14439	 -0.11854	  3.14745	703.47998	 22.90	
 17.000	  0.000	  2.71022	  2.73215	 -0.38164	  0.95365	  0.97801	 -0.12192	  3.14239	703.53998	 22.80	
 16.990	  5.821	  2.71779	  2.72561	 -0.37374	  1.11967	  0.82380	 -0.12251	  3.14761	703.53998	 22.90	
 17.009	 11.617	  2.71717	  2.69793	 -0.35844	  1.28977	  0.66769	 -0.11717	  3.14793	703.54999	 22.80	
 17.000	 17.404	  2.71704	  2.64757	 -0.32917	  1.45892	  0.52090	 -0.11795	  3.14514	703.51001	 22.80	
 16.990	 23.241	  2.72044	  2.58139	 -0.29003	  1.62743	  0.38527	 -0.11873	  3.14588	703.65997	 22.90	
 16.995	 29.081	  2.72376	  2.49916	 -0.23922	  1.79552	  0.25752	 -0.12251	  3.14979	703.53003	 22.90	
 16.988	 34.839	  2.72157	  2.39514	 -0.17631	  1.94986	  0.14298	 -0.12493	  3.14506	703.59998	 22.90	
 17.014	 40.657	  2.72074	  2.27886	 -0.10011	  2.09867	  0.04291	 -0.12907	  3.14515	703.66998	 22.90	
 17.007	 46.454	  2.72037	  2.14705	 -0.00994	  2.23574	 -0.04638	 -0.13110	  3.14443	703.67999	 22.90	
 17.001	 52.301	  2.72144	  2.00416	  0.08996	  2.36193	 -0.12672	 -0.13356	  3.14564	703.67999	 22.90	
 17.006	 58.063	  2.71866	  1.85074	  0.19730	  2.47128	 -0.19737	 -0.13307	  3.14486	703.60999	 22.90	
 17.002	 63.866	  2.71987	  1.68990	  0.32360	  2.56594	 -0.25300	 -0.13523	  3.14449	703.58002	 22.90	
 17.001	 69.690	  2.72017	  1.52478	  0.45609	  2.64377	 -0.29745	 -0.13799	  3.14729	703.63000	 22.90	
 16.988	 75.483	  2.71955	  1.35853	  0.60002	  2.69722	 -0.32605	 -0.14145	  3.14597	703.65997	 22.90	
 17.012	 81.253	  2.71512	  1.18853	  0.74432	  2.73677	 -0.35293	 -0.14468	  3.14524	703.67999	 22.90	
 16.996	 87.091	  2.71495	  1.02245	  0.90433	  2.75305	 -0.35880	 -0.14535	  3.14517	703.58002	 22.90	
 16.996	 92.909	  2.71447	  0.85817	  1.06688	  2.75364	 -0.36088	 -0.14960	  3.14754	703.59998	 22.90	
 17.008	 98.662	  2.70894	  0.70251	  1.23099	  2.73232	 -0.34740	 -0.14708	  3.14497	703.64001	 22.90	
 16.988	104.517	  2.70912	  0.54958	  1.40102	  2.69314	 -0.32416	 -0.14763	  3.14697	703.58002	 22.90	
 17.001	110.310	  2.70553	  0.41005	  1.56486	  2.63698	 -0.28884	 -0.14673	  3.14659	703.58002	 22.90	
 17.002	116.134	  2.70095	  0.27891	  1.72830	  2.56095	 -0.24566	 -0.14827	  3.14506	703.57001	 22.90	
 17.006	121.937	  2.69718	  0.15471	  1.88576	  2.46639	 -0.19024	 -0.14909	  3.14515	703.58002	 22.90	
 17.001	127.699	  2.69609	  0.04481	  2.03638	  2.35894	 -0.12253	 -0.14920	  3.14760	703.62000	 22.90	
 17.007	133.546	  2.69489	 -0.05261	  2.17897	  2.23578	 -0.04186	 -0.15303	  3.14883	703.58002	 22.90	
 17.014	139.343	  2.68926	 -0.14379	  2.30704	  2.09713	  0.04631	 -0.15050	  3.14554	703.57001	 22.90	
 16.988	145.161	  2.68754	 -0.21903	  2.42274	  1.95189	  0.14711	 -0.14902	  3.14749	703.53003	 22.90	
 16.995	150.919	  2.68632	 -0.28271	  2.52422	  1.79513	  0.26201	 -0.14638	  3.14804	703.59998	 22.90	
 16.990	156.759	  2.68229	 -0.33502	  2.60492	  1.62965	  0.38770	 -0.14249	  3.14543	703.62000	 22.90	
 17.000	162.596	  2.68005	 -0.38068	  2.66979	  1.46296	  0.51659	 -0.13872	  3.14450	703.65997	 22.90	
 17.009	168.383	  2.67874	 -0.40766	  2.71759	  1.29428	  0.66053	 -0.13502	  3.14561	702.73999	 22.90	
 16.990	174.179	  2.67813	 -0.42515	  2.74353	  1.12620	  0.81217	 -0.13040	  3.14440	703.56000	 22.90	
 18.709	174.675	  2.57169	 -0.59229	  2.83626	  1.04804	  0.73501	 -0.14645	  3.14531	703.53998	 22.90	
 18.703	169.441	  2.57475	 -0.57857	  2.81324	  1.21355	  0.58903	 -0.15166	  3.14717	703.59003	 22.90	
 18.691	164.085	  2.57539	 -0.55323	  2.77148	  1.38297	  0.44191	 -0.15629	  3.14774	703.54999	 22.90	
 18.706	158.818	  2.57560	 -0.51447	  2.71032	  1.54845	  0.31142	 -0.16400	  3.14574	703.44000	 22.90	
 18.695	153.537	  2.57966	 -0.46687	  2.63323	  1.71424	  0.18775	 -0.16781	  3.14689	703.59998	 22.90	
 18.704	148.255	  2.58039	 -0.41479	  2.54389	  1.87317	  0.06939	 -0.17273	  3.14712	703.28003	 22.90	
 18.698	142.952	  2.58120	 -0.34720	  2.43404	  2.02342	 -0.03344	 -0.17566	  3.14382	703.59003	 22.90	
 18.699	137.625	  2.58340	 -0.27178	  2.31337	  2.16982	 -0.13016	 -0.17515	  3.14514	703.60999	 22.90	
 18.705	132.343	  2.58581	 -0.18403	  2.18028	  2.30560	 -0.21579	 -0.18020	  3.14670	703.76001	 22.90	
 18.713	127.067	  2.58622	 -0.09121	  2.03677	  2.42447	 -0.29277	 -0.18214	  3.14505	703.58002	 22.90	
 18.700	121.794	  2.59262	  0.01833	  1.88800	  2.53235	 -0.35161	 -0.18350	  3.14506	703.53998	 22.90	
 18.698	116.504	  2.59576	  0.13921	  1.73136	  2.62519	 -0.40360	 -0.18240	  3.14460	703.59003	 22.90	
 18.707	111.165	  2.60008	  0.27108	  1.56722	  2.70552	 -0.44884	 -0.18294	  3.14565	703.57001	 22.90	
 18.690	105.863	  2.60020	  0.40886	  1.39858	  2.76488	 -0.48247	 -0.18423	  3.14331	703.54999	 22.90	
 18.696	100.583	  2.60523	  0.55054	  1.23656	  2.81081	 -0.50774	 -0.18358	  3.14641	703.59998	 22.90	
 18.700	 95.309	  2.60507	  0.70342	  1.07039	  2.83777	 -0.52574	 -0.18604	  3.14442	703.09003	 22.90	
 18.700	 90.000	  2.60681	  0.86069	  0.90676	  2.84615	 -0.53036	 -0.18510	  3.14337	703.65002	 22.90	
 18.700	 84.691	  2.61146	  1.02849	  0.75058	  2.84082	 -0.52520	 -0.18393	  3.14598	703.63000	 22.90	
 18.696	 79.417	  2.61440	  1.19505	  0.59932	  2.81463	 -0.50843	 -0.18187	  3.14546	703.64001	 22.90	
 18.690	 74.137	  2.61509	  1.36274	  0.45555	  2.77001	 -0.48353	 -0.18162	  3.14464	703.34998	 22.90	
 18.707	 68.835	  2.61833	  1.52988	  0.31935	  2.71255	 -0.45151	 -0.17936	  3.14690	703.65002	 22.90	
 18.698	 63.496	  2.61819	  1.69716	  0.18744	  2.63224	 -0.40547	 -0.17326	  3.14606	703.65002	 22.90	
 18.700	 58.206	  2.61857	  1.85674	  0.07001	  2.53823	 -0.35187	 -0.17614	  3.14518	703.65002	 22.90	
 18.713	 52.933	  2.61586	  2.00812	 -0.04170	  2.43218	 -0.29372	 -0.17041	  3.14497	703.38000	 22.90	
 18.705	 47.657	  2.61848	  2.15374	 -0.13715	  2.31066	 -0.21865	 -0.16705	  3.14653	703.00000	 22.90	
 18.699	 42.375	  2.61705	  2.28598	 -0.22524	  2.17436	 -0.13293	 -0.16662	  3.14320	703.27002	 22.90	
 18.698	 37.048	  2.61938	  2.41026	 -0.30232	  2.02743	 -0.03558	 -0.16302	  3.14476	702.84998	 22.90	
 18.704	 31.745	  2.61813	  2.51685	 -0.36693	  1.87502	  0.06795	 -0.15896	  3.14376	702.81000	 22.90	
 18.695	 26.463	  2.62003	  2.61238	 -0.41921	  1.71532	  0.18745	 -0.15400	  3.14590	703.19000	 22.90	
 18.706	 21.182	  2.61874	  2.69110	 -0.46763	  1.54800	  0.31462	 -0.15536	  3.14768	702.85999	 22.90	
 18.691	 15.915	  2.61640	  2.74926	 -0.49984	  1.38286	  0.44894	 -0.15216	  3.14667	703.60999	 22.90	
 18.703	 10.559	  2.61304	  2.79371	 -0.52633	  1.20965	  0.59564	 -0.14706	  3.14561	703.67999	 22.90	
 18.709	  5.325	  2.61262	  2.82110	 -0.54307	  1.04245	  0.74701	 -0.14726	  3.14808	703.60999	 22.90	
 18.700	  0.000	  2.60893	  2.82801	 -0.54673	  0.88080	  0.90479	 -0.14013	  3.14510	702.90002	 22.90	
 18.709	 -5.325	  2.60623	  2.81871	 -0.54047	  0.71989	  1.06872	 -0.14192	  3.14525	703.66998	 22.90	
 18.703	-10.559	  2.60106	  2.78776	 -0.52884	  0.56419	  1.23159	 -0.14052	  3.14165	703.60999	 22.90	
 18.691	-15.915	  2.60181	  2.74237	 -0.50170	  0.41961	  1.39917	 -0.13490	  3.14302	703.60999	 23.00	
 18.706	-21.182	  2.60011	  2.68200	 -0.46908	  0.27886	  1.56608	 -0.13444	  3.14421	703.13000	 23.00	
 18.695	-26.463	  2.59650	  2.60171	 -0.42493	  0.15122	  1.72671	 -0.12954	  3.14357	703.64001	 22.90	
 18.704	-31.745	  2.59624	  2.51091	 -0.37275	  0.03549	  1.88069	 -0.12691	  3.14527	703.46002	 23.00	
 18.698	-37.048	  2.59461	  2.39944	 -0.30603	 -0.07468	  2.03607	 -0.12341	  3.14516	703.65002	 23.00	
 18.699	-42.375	  2.59174	  2.27568	 -0.22920	 -0.17405	  2.18082	 -0.11811	  3.14559	703.59998	 23.00	
 18.705	-47.657	  2.59182	  2.14130	 -0.14197	 -0.26188	  2.31612	 -0.11857	  3.14767	703.59998	 23.00	
 18.713	-52.933	  2.58974	  1.99498	 -0.04627	 -0.33791	  2.43355	 -0.11032	  3.14613	703.64001	 23.00	
 18.700	-58.206	  2.58499	  1.83999	  0.05970	 -0.40169	  2.53631	 -0.10969	  3.14367	703.56000	 23.00	
 18.698	-63.496	  2.58224	  1.67692	  0.17436	 -0.45926	  2.62741	 -0.10931	  3.14278	703.64001	 23.00	
 18.707	-68.835	  2.58176	  1.50897	  0.30824	 -0.50383	  2.70625	 -0.10883	  3.14418	703.59998	 23.00	
 18.690	-74.137	  2.57908	  1.33860	  0.44121	 -0.53934	  2.76220	 -0.10289	  3.14392	703.60999	 23.00	
 18.696	-79.417	  2.57621	  1.17048	  0.58685	 -0.56438	  2.80409	 -0.10114	  3.14338	703.66998	 23.00	
 18.700	-84.691	  2.57583	  1.00376	  0.73800	 -0.57663	  2.82670	 -0.09973	  3.14385	703.73999	 23.00	
 18.700	-90.000	  2.57292	  0.84051	  0.89730	 -0.58045	  2.83760	 -0.10227	  3.14512	703.66998	 23.00	
 18.700	-95.309	  2.57106	  0.68021	  1.05710	 -0.57731	  2.82870	 -0.09662	  3.14396	703.59003	 23.00	
 18.696	-100.583	  2.57049	  0.52806	  1.22286	 -0.55890	  2.80137	 -0.09755	  3.14448	703.73999	 23.00	
 18.690	-105.863	  2.56984	  0.38457	  1.38815	 -0.53641	  2.75943	 -0.09846	  3.14553	703.60999	 23.00	
 18.707	-111.165	  2.56689	  0.24687	  1.55319	 -0.50060	  2.69827	 -0.09716	  3.14494	703.65997	 23.00	
 18.698	-116.504	  2.56492	  0.11529	  1.71862	 -0.45521	  2.61738	 -0.09841	  3.14431	703.59003	 23.00	
 18.700	-121.794	  2.56578	 -0.00007	  1.87663	 -0.39826	  2.52307	 -0.10201	  3.14581	703.62000	 23.00	
 18.713	-127.067	  2.56351	 -0.10709	  2.02715	 -0.33260	  2.41507	 -0.09821	  3.14454	703.58002	 23.00	
 18.705	-132.343	  2.56369	 -0.20508	  2.16976	 -0.25804	  2.29505	 -0.10164	  3.14431	703.59003	 23.00	
 18.699	-137.625	  2.56317	 -0.29171	  2.30443	 -0.17024	  2.16119	 -0.10396	  3.14573	703.66998	 23.00	
 18.698	-142.952	  2.56502	 -0.36491	  2.42501	 -0.06903	  2.01452	 -0.10830	  3.14455	703.66998	 23.00	
 18.704	-148.255	  2.56641	 -0.42807	  2.53569	  0.04305	  1.86545	 -0.11348	  3.14658	703.65997	 23.00	
 18.695	-153.537	  2.56631	 -0.48224	  2.62573	  0.15888	  1.70730	 -0.11598	  3.14572	702.89001	 23.00	
 18.706	-158.818	  2.56762	 -0.52292	  2.70322	  0.28931	  1.54579	 -0.11860	  3.14620	703.63000	 23.00	
 18.691	-164.085	  2.56903	 -0.55483	  2.76266	  0.42974	  1.37992	 -0.12789	  3.14540	703.65002	 23.00	
 18.703	-169.441	  2.56723	 -0.58183	  2.80841	  0.57220	  1.21335	 -0.12993	  3.14464	703.67999	 23.00	
 18.709	-174.675	  2.56888	 -0.59566	  2.83502	  0.72486	  1.05171	 -0.13597	  3.14485	703.65997	 23.00	
 18.700	180.000	  2.56945	 -0.60176	  2.84315	  0.88344	  0.88718	 -0.13828	  3.14352	703.73999	 23.00	
 20.400	180.000	  2.45096	 -0.77657	  2.92042	  0.79643	  0.79849	 -0.14166	  3.14494	703.70001	 23.00	
 20.401	-175.153	  2.45091	 -0.76837	  2.91040	  0.64190	  0.96014	 -0.13516	  3.14252	703.60999	 23.00	
 20.407	-170.264	  2.44923	 -0.75881	  2.88660	  0.48812	  1.12105	 -0.13232	  3.14346	703.63000	 23.00	
 20.410	-165.423	  2.44844	 -0.74127	  2.85176	  0.34469	  1.28065	 -0.13036	  3.14621	703.69000	 23.00	
 20.392	-160.496	  2.44543	 -0.71092	  2.79006	  0.20338	  1.44889	 -0.12145	  3.14215	703.62000	 23.00	
 20.401	-155.705	  2.44227	 -0.67336	  2.72029	  0.07526	  1.61117	 -0.12117	  3.14103	703.53998	 23.00	
 20.405	-150.835	  2.44454	 -0.62920	  2.63654	 -0.04548	  1.76850	 -0.11664	  3.14329	703.58002	 23.00	
 20.397	-145.903	  2.44498	 -0.56884	  2.53343	 -0.15509	  1.92819	 -0.10980	  3.14170	703.59003	 23.00	
 20.392	-141.062	  2.44547	 -0.50137	  2.42137	 -0.25633	  2.07831	 -0.10207	  3.14362	703.57001	 23.00	
 20.396	-136.227	  2.44407	 -0.42698	  2.29591	 -0.34842	  2.21734	 -0.10461	  3.14271	703.58002	 23.00	
 20.408	-131.372	  2.44623	 -0.34487	  2.16419	 -0.43187	  2.35056	 -0.10564	  3.14634	703.50000	 23.00	
 20.410	-126.511	  2.44370	 -0.24522	  2.01611	 -0.50212	  2.46886	 -0.10139	  3.14312	703.63000	 23.00	
 20.400	-121.604	  2.44492	 -0.14087	  1.86178	 -0.56613	  2.57643	 -0.10120	  3.14276	703.59003	 23.00	
 20.403	-116.741	  2.44585	 -0.02662	  1.70374	 -0.62148	  2.67260	 -0.09747	  3.14263	703.58002	 23.00	
 20.413	-111.900	  2.45002	  0.09922	  1.54491	 -0.66249	  2.75273	 -0.09856	  3.14562	703.56000	 23.00	
 20.398	-107.004	  2.45237	  0.23248	  1.37743	 -0.69990	  2.81720	 -0.09559	  3.14531	703.57001	 23.00	
 20.394	-102.132	  2.45247	  0.37215	  1.21403	 -0.72473	  2.86328	 -0.09577	  3.14439	702.85999	 23.00	
 20.403	-97.332	  2.45430	  0.52150	  1.05101	 -0.74147	  2.89310	 -0.09734	  3.14262	703.50000	 23.00	
 20.392	-92.440	  2.45859	  0.67859	  0.88984	 -0.74930	  2.91210	 -0.09934	  3.14542	702.95001	 23.00	
 20.392	-87.560	  2.45982	  0.83836	  0.73088	 -0.74996	  2.91069	 -0.09794	  3.14499	703.57001	 23.00	
 20.403	-82.668	  2.46139	  1.00268	  0.57425	 -0.74370	  2.89761	 -0.10371	  3.14316	703.65002	 23.00	
 20.394	-77.868	  2.46221	  1.16686	  0.43062	 -0.72723	  2.86860	 -0.10474	  3.14390	703.59003	 23.00	
 20.398	-72.996	  2.46393	  1.33539	  0.29196	 -0.70001	  2.82245	 -0.10280	  3.14232	703.67999	 23.00	
 20.413	-68.100	  2.46361	  1.50376	  0.15676	 -0.66996	  2.76342	 -0.11009	  3.14226	703.64001	 23.00	
 20.403	-63.259	  2.46619	  1.66704	  0.03344	 -0.62791	  2.68828	 -0.10922	  3.14427	703.57001	 23.00	
 20.400	-58.396	  2.46507	  1.82551	 -0.07860	 -0.57445	  2.59332	 -0.10915	  3.13887	703.62000	 23.00	
 20.410	-53.489	  2.46947	  1.98365	 -0.18308	 -0.51095	  2.49081	 -0.11425	  3.14284	703.62000	 23.00	
 20.408	-48.628	  2.47096	  2.13239	 -0.28101	 -0.43948	  2.37007	 -0.11348	  3.14146	703.59998	 23.00	
 20.396	-43.773	  2.47616	  2.26915	 -0.36087	 -0.35724	  2.24530	 -0.11819	  3.14518	703.47998	 23.00	
 20.392	-38.938	  2.47360	  2.39324	 -0.44028	 -0.26700	  2.10252	 -0.12310	  3.13944	703.58002	 23.00	
 20.397	-34.097	  2.47751	  2.51078	 -0.50680	 -0.16564	  1.95582	 -0.13036	  3.14248	703.12000	 23.00	
 20.405	-29.165	  2.47715	  2.61559	 -0.56958	 -0.05459	  1.79506	 -0.13416	  3.14050	702.85999	 23.00	
 20.401	-24.295	  2.47836	  2.70224	 -0.61797	  0.06557	  1.63620	 -0.13944	  3.14171	703.52002	 23.00	
 20.392	-19.504	  2.48174	  2.77314	 -0.65350	  0.19395	  1.47434	 -0.14556	  3.14095	702.77002	 23.10	
 20.410	-14.577	  2.48437	  2.83248	 -0.68302	  0.33356	  1.30816	 -0.14430	  3.14298	702.84998	 23.10	
 20.407	 -9.736	  2.48636	  2.87217	 -0.70310	  0.47713	  1.14501	 -0.14735	  3.14222	703.71002	 23.10	
 20.401	 -4.847	  2.49036	  2.89729	 -0.71484	  0.63261	  0.97910	 -0.15061	  3.14232	702.84998	 23.10	
 20.400	  0.000	  2.49208	  2.90585	 -0.72070	  0.79120	  0.81723	 -0.15812	  3.14179	702.94000	 23.10	
 20.401	  4.847	  2.49359	  2.90016	 -0.71806	  0.95077	  0.66141	 -0.16192	  3.14262	703.46997	 23.10	
 20.407	  9.736	  2.49649	  2.87494	 -0.70509	  1.12115	  0.50718	 -0.16895	  3.14262	703.54999	 23.10	
 20.410	 14.577	  2.49812	  2.83496	 -0.68291	  1.28813	  0.36474	 -0.17032	  3.14190	703.59998	 23.10	
 20.392	 19.504	  2.50156	  2.78134	 -0.65121	  1.45837	  0.22826	 -0.17463	  3.14439	702.79999	 23.10	
 20.401	 24.295	  2.50076	  2.71161	 -0.61405	  1.62237	  0.09876	 -0.17806	  3.14345	702.76001	 23.10	
 20.405	 29.165	  2.49996	  2.62378	 -0.56735	  1.78406	 -0.02148	 -0.18642	  3.14312	703.56000	 23.10	
 20.397	 34.097	  2.50456	  2.52267	 -0.50714	  1.94566	 -0.12881	 -0.19132	  3.14374	702.87000	 23.10	
 20.392	 38.938	  2.50258	  2.40668	 -0.43927	  2.09506	 -0.22646	 -0.19444	  3.14135	702.83002	 23.10	
 20.396	 43.773	  2.50303	  2.28252	 -0.36327	  2.23661	 -0.31606	 -0.19799	  3.14369	702.87000	 23.10	
 20.408	 48.628	  2.50165	  2.14532	 -0.27896	  2.36898	 -0.39722	 -0.20311	  3.14305	702.82001	 23.10	
 20.410	 53.489	  2.50187	  1.99808	 -0.17668	  2.48832	 -0.46401	 -0.20390	  3.14222	702.95001	 23.10	
 20.400	 58.396	  2.50103	  1.84332	 -0.07324	  2.59591	 -0.52428	 -0.20532	  3.14178	702.88000	 23.10	
 20.403	 63.259	  2.49844	  1.68403	  0.03986	  2.68943	 -0.57954	 -0.20922	  3.14262	702.81000	 23.10	
 20.413	 68.100	  2.49499	  1.51774	  0.16440	  2.76787	 -0.62288	 -0.21049	  3.14129	702.81000	 23.10	
 20.398	 72.996	  2.49777	  1.35166	  0.30067	  2.83093	 -0.65330	 -0.20996	  3.14170	702.79999	 23.10	
 20.394	 77.868	  2.49566	  1.18414	  0.43993	  2.87897	 -0.68167	 -0.21252	  3.14341	702.85999	 23.10	
 20.403	 82.668	  2.49505	  1.02047	  0.58533	  2.91011	 -0.69793	 -0.21852	  3.14381	702.83002	 23.10	
 20.392	 87.560	  2.49139	  0.85530	  0.74179	  2.92284	 -0.70469	 -0.21595	  3.14275	702.81000	 23.10	
 20.392	 92.440	  2.48911	  0.69458	  0.89762	  2.92237	 -0.70660	 -0.21414	  3.14241	702.92999	 23.10	
 20.403	 97.332	  2.48410	  0.53745	  1.05933	  2.90719	 -0.70163	 -0.21469	  3.14245	703.39001	 23.10	
 20.394	102.132	  2.48160	  0.39070	  1.22012	  2.87442	 -0.68431	 -0.21362	  3.14159	703.48999	 23.10	
 20.398	107.004	  2.48122	  0.25080	  1.38698	  2.82728	 -0.65585	 -0.21148	  3.14382	703.56000	 23.10	
 20.413	111.900	  2.47591	  0.11457	  1.55214	  2.76206	 -0.62460	 -0.20996	  3.14266	703.46002	 23.10	
 20.403	116.741	  2.47619	 -0.01010	  1.71664	  2.68432	 -0.58111	 -0.20965	  3.14547	703.12000	 23.10	
 20.400	121.604	  2.47280	 -0.12373	  1.87229	  2.58896	 -0.52624	 -0.20443	  3.14380	702.70001	 23.10	
 20.410	126.511	  2.46987	 -0.22993	  2.02604	  2.47997	 -0.46408	 -0.20438	  3.14398	702.71997	 23.10	
 20.408	131.372	  2.46236	 -0.32979	  2.16693	  2.35949	 -0.39992	 -0.19874	  3.14103	702.75000	 23.10	
 20.396	136.227	  2.46439	 -0.41356	  2.30602	  2.22965	 -0.31699	 -0.19598	  3.14455	703.54999	 23.10	
 20.392	141.062	  2.46180	 -0.48880	  2.42902	  2.08741	 -0.22738	 -0.18981	  3.14243	703.52002	 23.10	
 20.397	145.903	  2.45962	 -0.55668	  2.54227	  1.93824	 -0.13046	 -0.18740	  3.14301	703.53998	 23.10	
 20.405	150.835	  2.45711	 -0.61491	  2.64327	  1.78054	 -0.02168	 -0.18287	  3.14429	703.53003	 23.10	
 20.401	155.705	  2.45521	 -0.66412	  2.72973	  1.61934	  0.09609	 -0.17852	  3.14399	703.46002	 23.10	
 20.392	160.496	  2.45265	 -0.70507	  2.79565	  1.45598	  0.21764	 -0.16734	  3.14352	703.50000	 23.10	
 20.410	165.423	  2.45001	 -0.73745	  2.85201	  1.28949	  0.35226	 -0.16053	  3.14234	702.72998	 23.10	
 20.407	170.264	  2.45131	 -0.75457	  2.88835	  1.12393	  0.49593	 -0.15470	  3.14188	702.73999	 23.10	
 20.401	175.153	  2.44981	 -0.77188	  2.91228	  0.95500	  0.64447	 -0.14803	  3.14258	703.40997	 23.10	
  0.141	 45.000	  3.14193	  1.35020	  1.38363	  1.38338	  1.37871	  0.07961	  3.14327	702.78998	 23.10	
  4.001	128.691	  3.13143	  1.07619	  1.59148	  1.64237	  1.07085	  0.06032	  3.14280	703.27002	 23.10	
  4.002	 76.995	  3.13521	  1.38449	  1.27399	  1.72191	  1.00853	  0.07081	  3.14160	703.38000	 23.10	
  4.002	 25.892	  3.13674	  1.65239	  1.03952	  1.50218	  1.19100	  0.07218	  3.14121	703.53998	 23.10	
  4.002	-25.892	  3.13497	  1.65164	  1.03834	  1.17715	  1.50723	  0.06075	  3.14409	703.32001	 23.10	
  4.002	-76.995	  3.13029	  1.38016	  1.26985	  0.99506	  1.72131	  0.04616	  3.14200	702.94000	 23.10	
  4.001	-128.691	  3.12906	  1.07235	  1.59229	  1.05574	  1.64503	  0.04130	  3.14362	702.82001	 23.10	
  4.000	180.000	  3.12990	  0.95005	  1.74258	  1.33816	  1.34452	  0.04903	  3.14397	703.14001	 23.10	
  8.000	180.000	  3.06184	  0.50659	  2.11122	  1.26339	  1.27376	 -0.00645	  3.14352	702.84998	 23.10	
  7.991	-152.370	  3.06023	  0.58338	  2.00982	  0.91120	  1.64532	 -0.00991	  3.14391	702.78003	 23.10	
  7.997	-124.550	  3.05721	  0.79843	  1.73736	  0.66034	  1.94613	 -0.01494	  3.14134	702.89001	 23.10	
  8.006	-96.837	  3.06278	  1.12805	  1.37335	  0.54730	  2.09419	 -0.01686	  3.14293	702.78998	 23.10	
  7.988	-69.228	  3.06837	  1.50694	  1.01432	  0.58697	  2.04314	 -0.01070	  3.14394	702.83002	 23.10	
  7.997	-41.563	  3.07129	  1.84275	  0.73462	  0.77113	  1.80928	  0.00054	  3.14211	702.83002	 23.10	
  8.008	-13.821	  3.07547	  2.04212	  0.58601	  1.07797	  1.46248	  0.01860	  3.14132	703.23999	 23.10	
  8.008	 13.821	  3.07980	  2.04390	  0.58493	  1.45350	  1.09419	  0.03401	  3.14468	703.65997	 23.10	
  7.997	 41.563	  3.08227	  1.84755	  0.73464	  1.81092	  0.78930	  0.03452	  3.14406	702.90997	 23.10	
  7.988	 69.228	  3.07937	  1.51336	  1.01501	  2.04409	  0.60845	  0.03557	  3.14350	702.88000	 23.10	
  8.006	 96.837	  3.07298	  1.13248	  1.37377	  2.09571	  0.56333	  0.02167	  3.14236	702.96997	 23.10	
  7.997	124.550	  3.06894	  0.80243	  1.73980	  1.94485	  0.67921	  0.01510	  3.14290	703.65002	 23.10	
  7.991	152.370	  3.06487	  0.58304	  2.01062	  1.63907	  0.92928	  0.00841	  3.14382	703.60999	 23.10	
 12.009	161.059	  2.92872	  0.11919	  2.36011	  1.54257	  0.79820	 -0.06288	  3.14295	703.54999	 23.10	
 12.013	142.081	  2.93482	  0.26647	  2.15488	  1.91335	  0.49655	 -0.06017	  3.14581	703.46002	 23.10	
 12.006	123.113	  2.93490	  0.50990	  1.83647	  2.20559	  0.27898	 -0.05202	  3.13865	702.79999	 23.10	
 12.007	104.200	  2.94746	  0.83268	  1.46672	  2.38377	  0.15896	 -0.04479	  3.14321	703.59998	 23.10	
 11.989	 85.301	  2.95432	  1.21412	  1.07762	  2.42201	  0.13796	 -0.04043	  3.14455	702.79999	 23.10	
 12.013	 66.294	  2.95306	  1.60776	  0.71819	  2.31250	  0.20600	 -0.03123	  3.14095	703.57001	 23.10	
 12.012	 47.388	  2.95580	  1.96537	  0.43180	  2.07505	  0.37584	 -0.02809	  3.14313	702.76001	 23.10	
 11.990	 28.440	  2.95691	  2.23326	  0.23899	  1.73406	  0.63748	 -0.02231	  3.14208	702.73999	 23.10	
 11.991	  9.464	  2.95674	  2.37742	  0.14474	  1.34569	  0.97561	 -0.03095	  3.14485	703.26001	 23.10	
 11.991	 -9.464	  2.95525	  2.37757	  0.14414	  0.96012	  1.35724	 -0.04321	  3.14588	702.78998	 23.10	
 11.990	-28.440	  2.94763	  2.22887	  0.24292	  0.61795	  1.74037	 -0.05593	  3.14150	702.85999	 23.10	
 12.012	-47.388	  2.94141	  1.95955	  0.43371	  0.34866	  2.07563	 -0.06858	  3.14307	702.71997	 23.10	
 12.013	-66.294	  2.93728	  1.60027	  0.71691	  0.17733	  2.30874	 -0.06891	  3.14276	703.60999	 23.10	
 11.989	-85.301	  2.93187	  1.20395	  1.07072	  0.10531	  2.41557	 -0.06921	  3.14184	702.94000	 23.20	
 12.007	-104.200	  2.92610	  0.82386	  1.45902	  0.12801	  2.38025	 -0.07103	  3.14123	702.87000	 23.20	
 12.006	-123.113	  2.92292	  0.50222	  1.83396	  0.25278	  2.20348	 -0.06937	  3.14146	703.13000	 23.20	
 12.013	-142.081	  2.91877	  0.25910	  2.14941	  0.47003	  1.91135	 -0.07046	  3.14148	702.79999	 23.20	
 12.009	-161.059	  2.92020	  0.11401	  2.35635	  0.77685	  1.54511	 -0.06930	  3.13996	702.96002	 23.20	
 16.000	180.000	  2.73158	 -0.34081	  2.69624	  1.00076	  1.00610	 -0.11842	  3.14304	702.94000	 23.20	
 15.990	-165.604	  2.72844	 -0.30837	  2.63776	  0.63111	  1.39227	 -0.10988	  3.14065	703.28003	 23.20	
 16.002	-151.165	  2.72648	 -0.21249	  2.47575	  0.30698	  1.77789	 -0.10255	  3.14369	702.87000	 23.20	
 16.002	-136.836	  2.72698	 -0.04425	  2.21682	  0.04961	  2.12303	 -0.09513	  3.14231	702.87000	 23.20	
 15.995	-122.439	  2.72565	  0.19282	  1.88186	 -0.14592	  2.40793	 -0.08992	  3.14137	702.96997	 23.20	
 15.993	-107.966	  2.73212	  0.50203	  1.50140	 -0.26478	  2.59943	 -0.08901	  3.14298	702.94000	 23.20	
 16.005	-93.629	  2.73339	  0.85856	  1.10776	 -0.31950	  2.68453	 -0.09027	  3.14094	703.59998	 23.20	
 15.992	-79.234	  2.74042	  1.25006	  0.73725	 -0.30265	  2.65818	 -0.09316	  3.14298	703.34998	 23.20	
 16.009	-64.774	  2.74439	  1.64818	  0.40310	 -0.21674	  2.52397	 -0.09896	  3.14214	702.90997	 23.20	
 15.997	-50.364	  2.74915	  2.01559	  0.13076	 -0.06243	  2.29133	 -0.10399	  3.14247	702.73999	 23.20	
 15.997	-36.045	  2.75282	  2.31940	 -0.07193	  0.16302	  1.97430	 -0.10791	  3.14048	702.82001	 23.20	
 16.000	-21.597	  2.75667	  2.53999	 -0.21037	  0.45556	  1.60102	 -0.10580	  3.13986	702.85999	 23.20	
 16.003	 -7.169	  2.76200	  2.65512	 -0.27628	  0.80512	  1.21162	 -0.10614	  3.14035	702.82001	 23.20	
 16.003	  7.169	  2.76853	  2.65780	 -0.27732	  1.19001	  0.83113	 -0.10145	  3.14273	702.87000	 23.20	
 16.000	 21.597	  2.76947	  2.54531	 -0.21103	  1.58783	  0.48337	 -0.10005	  3.14167	702.73999	 23.20	
 15.997	 36.045	  2.77187	  2.32898	 -0.07457	  1.96639	  0.19591	 -0.10643	  3.14379	702.79999	 23.20	
 15.997	 50.364	  2.77202	  2.02497	  0.13390	  2.28513	 -0.02031	 -0.11121	  3.14183	702.83002	 23.20	
 16.009	 64.774	  2.77023	  1.66160	  0.41028	  2.52996	 -0.17433	 -0.11517	  3.14359	702.87000	 23.20	
 15.992	 79.234	  2.76605	  1.26500	  0.74421	  2.66467	 -0.25442	 -0.12174	  3.14088	702.89001	 23.20	
 16.005	 93.629	  2.76132	  0.87536	  1.11704	  2.69112	 -0.27185	 -0.12770	  3.14243	702.84003	 23.20	
 15.993	107.966	  2.75460	  0.51815	  1.50901	  2.60704	 -0.21991	 -0.12717	  3.14228	702.82001	 23.20	
 15.995	122.439	  2.75008	  0.21271	  1.88909	  2.41328	 -0.09824	 -0.12910	  3.14427	703.03003	 23.20	
 16.002	136.836	  2.74348	 -0.02694	  2.22270	  2.13076	  0.08729	 -0.13379	  3.14399	702.87000	 23.20	
 16.002	151.165	  2.73540	 -0.20329	  2.47960	  1.78044	  0.33389	 -0.12846	  3.14259	702.85999	 23.20	
 15.990	165.604	  2.73357	 -0.30573	  2.64102	  1.39224	  0.64617	 -0.12396	  3.14229	703.10999	 23.20	
 20.003	168.362	  2.47944	 -0.70712	  2.85878	  1.20286	  0.46732	 -0.15607	  3.14170	703.56000	 23.20	
 20.008	156.764	  2.48125	 -0.63298	  2.72948	  1.58898	  0.15502	 -0.17410	  3.14081	703.46002	 23.20	
 20.000	145.147	  2.48845	 -0.50586	  2.51515	  1.96019	 -0.10748	 -0.18743	  3.14220	703.64001	 23.20	
 19.995	133.545	  2.49080	 -0.32965	  2.22623	  2.29371	 -0.32319	 -0.19951	  3.14097	703.70001	 23.20	
 20.009	121.926	  2.50098	 -0.09691	  1.88657	  2.56937	 -0.48038	 -0.20259	  3.14357	703.13000	 23.20	
 20.005	110.327	  2.50771	  0.19040	  1.50891	  2.76841	 -0.59116	 -0.20667	  3.14283	702.90002	 23.20	
 19.989	 98.733	  2.51549	  0.52170	  1.12701	  2.88024	 -0.65010	 -0.21055	  3.14357	703.26001	 23.20	
 19.999	 87.075	  2.51791	  0.88867	  0.74635	  2.90444	 -0.66543	 -0.21246	  3.14081	702.78003	 23.20	
 19.992	 75.457	  2.52479	  1.27856	  0.39848	  2.84145	 -0.62912	 -0.20593	  3.14469	702.87000	 23.20	
 20.009	 63.844	  2.52594	  1.66807	  0.08988	  2.68611	 -0.54445	 -0.20260	  3.14314	702.90002	 23.20	
 19.989	 52.269	  2.52952	  2.03341	 -0.16545	  2.44896	 -0.40723	 -0.19763	  3.14145	702.75000	 23.20	
 19.999	 40.602	  2.52909	  2.35637	 -0.37430	  2.14083	 -0.22016	 -0.18619	  3.14034	702.79999	 23.20	
 20.004	 29.051	  2.52751	  2.61062	 -0.52471	  1.78668	  0.01733	 -0.17727	  3.14130	702.76001	 23.20	
 20.005	 17.433	  2.52525	  2.78853	 -0.62315	  1.39611	  0.31635	 -0.16428	  3.14152	702.77002	 23.20	
 20.006	  5.780	  2.52020	  2.87727	 -0.67304	  1.00242	  0.65413	 -0.15725	  3.14179	703.45001	 23.20	
 20.006	 -5.780	  2.51779	  2.87668	 -0.67238	  0.62820	  1.02833	 -0.14942	  3.14184	702.72998	 23.20	
 20.005	-17.433	  2.51350	  2.78460	 -0.62050	  0.28636	  1.41660	 -0.14032	  3.14302	702.88000	 23.20	
 20.004	-29.051	  2.51059	  2.60495	 -0.52395	 -0.01270	  1.79895	 -0.13180	  3.14313	702.82001	 23.20	
 19.999	-40.602	  2.50272	  2.34386	 -0.37438	 -0.25768	  2.14803	 -0.12201	  3.14070	702.78003	 23.20	
 19.989	-52.269	  2.50209	  2.02107	 -0.16799	 -0.44709	  2.45075	 -0.11226	  3.14274	702.79999	 23.20	
 20.009	-63.844	  2.49505	  1.65293	  0.08444	 -0.58771	  2.68281	 -0.10892	  3.14241	702.81000	 23.20	
 19.992	-75.457	  2.49064	  1.26194	  0.39134	 -0.67076	  2.82948	 -0.10230	  3.14032	702.87000	 23.20	
 19.999	-87.075	  2.48625	  0.87268	  0.73902	 -0.70663	  2.89229	 -0.09807	  3.14040	702.84998	 23.20	
 19.989	-98.733	  2.48287	  0.50217	  1.11612	 -0.69372	  2.86967	 -0.09608	  3.14239	702.76001	 23.20	
 20.005	-110.327	  2.47721	  0.16896	  1.50054	 -0.63676	  2.76127	 -0.09336	  3.14472	702.71997	 23.20	
 20.009	-121.926	  2.47490	 -0.11278	  1.87747	 -0.52081	  2.56150	 -0.09591	  3.14426	702.79999	 23.20	
 19.995	-133.545	  2.47390	 -0.34093	  2.21910	 -0.35093	  2.28335	 -0.10351	  3.14003	702.81000	 23.20	
 20.000	-145.147	  2.47507	 -0.51580	  2.50657	 -0.13238	  1.95404	 -0.10955	  3.14231	702.88000	 23.20	
 20.008	-156.764	  2.47574	 -0.63944	  2.72487	  0.13946	  1.58459	 -0.11777	  3.14244	702.96002	 23.20	
 20.003	-168.362	  2.47684	 -0.71033	  2.85731	  0.45678	  1.20001	 -0.12554	  3.14296	702.89001	 23.20	
 20.000	180.000	  2.48061	 -0.73047	  2.90107	  0.82298	  0.81960	 -0.14028	  3.14172	702.81000	 23.20	
