FileType=PCF
NHL=14
Date=03/15/19	11:25:02
Facility=APL
Serial=16071-3
Customer=NASA
NP=6
Mach=0.036000
Calibration=1:1
CalPts=490
TstPts=95
PortNumbering=AP Standard
Units=Torr C m/s kg/m^3 deg mm 
Theta[deg]	Phi[deg]	P1[Torr]	P2[Torr]	P3[Torr]	P4[Torr]	P5[Torr]	P6[Torr]	Pt[Torr]	Ps[Abs,Torr]	Ts[C]	
  0.000	  0.000	  0.65609	  0.29697	  0.30282	  0.30443	  0.30398	  0.04611	  0.65665	703.73999	 21.30	
  1.691	128.401	  0.65862	  0.27912	  0.32333	  0.33020	  0.28050	  0.04758	  0.65838	703.78998	 21.30	
  1.692	 77.194	  0.65728	  0.30076	  0.29595	  0.33507	  0.27448	  0.04798	  0.65584	703.69000	 21.30	
  1.699	 26.182	  0.65579	  0.32110	  0.27897	  0.31722	  0.28755	  0.04690	  0.65540	703.66998	 21.30	
  1.699	-26.182	  0.66603	  0.32477	  0.28124	  0.29446	  0.31741	  0.04450	  0.66819	703.71002	 21.30	
  1.692	-77.194	  0.65554	  0.29920	  0.29610	  0.27563	  0.33099	  0.04031	  0.65792	703.65002	 21.30	
  1.691	-128.401	  0.66076	  0.27830	  0.32275	  0.28352	  0.32673	  0.04014	  0.66247	703.71002	 21.30	
  1.700	180.000	  0.65829	  0.26686	  0.33440	  0.30480	  0.30172	  0.04449	  0.65946	703.70001	 21.30	
  3.400	180.000	  0.65418	  0.23145	  0.36767	  0.30124	  0.29898	  0.04294	  0.65761	703.75000	 21.30	
  3.388	-152.325	  0.65852	  0.23825	  0.36028	  0.27344	  0.32968	  0.03771	  0.66280	703.71002	 21.30	
  3.397	-124.529	  0.65532	  0.25597	  0.33577	  0.25176	  0.35134	  0.03501	  0.66039	703.70001	 21.30	
  3.399	-96.763	  0.65343	  0.28190	  0.30659	  0.24098	  0.36180	  0.03568	  0.65869	703.67999	 21.30	
  3.394	-69.283	  0.65379	  0.31194	  0.27675	  0.24402	  0.35751	  0.03688	  0.65874	703.77002	 21.30	
  3.400	-41.398	  0.65110	  0.33778	  0.25161	  0.25856	  0.33781	  0.03981	  0.65559	703.75000	 21.30	
  3.401	-14.021	  0.65580	  0.35606	  0.24180	  0.28581	  0.31242	  0.04342	  0.65803	703.75000	 21.30	
  3.401	 14.021	  0.65168	  0.35565	  0.24220	  0.31572	  0.28128	  0.04785	  0.65267	703.77002	 21.30	
  3.400	 41.398	  0.66027	  0.34499	  0.25756	  0.34893	  0.26133	  0.04980	  0.65899	703.72998	 21.30	
  3.394	 69.283	  0.66482	  0.31950	  0.28362	  0.37078	  0.24732	  0.05089	  0.66335	703.63000	 21.30	
  3.399	 96.763	  0.66766	  0.28948	  0.31405	  0.37721	  0.24374	  0.04977	  0.66619	703.65002	 21.30	
  3.397	124.529	  0.66153	  0.26037	  0.34116	  0.36136	  0.25154	  0.04756	  0.66059	703.81000	 21.30	
  3.388	152.325	  0.65933	  0.24025	  0.36219	  0.33482	  0.27251	  0.04409	  0.65936	703.59998	 21.30	
  5.099	161.165	  0.65703	  0.20302	  0.39707	  0.33303	  0.26575	  0.03819	  0.66093	703.70001	 21.30	
  5.109	142.013	  0.65700	  0.21643	  0.38178	  0.36463	  0.23969	  0.04101	  0.65962	703.59998	 21.30	
  5.095	123.033	  0.65542	  0.23793	  0.35440	  0.38790	  0.22042	  0.04552	  0.65558	703.64001	 21.30	
  5.105	104.191	  0.65833	  0.26715	  0.32615	  0.40399	  0.20996	  0.04838	  0.65903	703.60999	 21.30	
  5.093	 85.207	  0.65563	  0.29869	  0.29204	  0.40465	  0.20772	  0.04908	  0.65521	703.58002	 21.30	
  5.104	 66.290	  0.65828	  0.33207	  0.26325	  0.39717	  0.21455	  0.04902	  0.65922	703.66998	 21.30	
  5.094	 47.331	  0.65952	  0.36164	  0.23765	  0.37822	  0.23020	  0.04909	  0.66006	703.59003	 21.30	
  5.089	 28.397	  0.65439	  0.37975	  0.21792	  0.34770	  0.25095	  0.04743	  0.65675	703.54999	 21.30	
  5.096	  9.576	  0.65813	  0.39353	  0.20859	  0.31834	  0.27899	  0.04503	  0.66194	703.70001	 21.30	
  5.096	 -9.576	  0.65121	  0.38818	  0.20773	  0.28084	  0.30775	  0.03933	  0.65653	703.64001	 21.30	
  5.089	-28.397	  0.65049	  0.37571	  0.21504	  0.25153	  0.33832	  0.03585	  0.65776	703.60999	 21.40	
  5.094	-47.331	  0.65709	  0.35632	  0.23399	  0.22938	  0.36814	  0.03283	  0.66417	703.81000	 21.40	
  5.104	-66.290	  0.65174	  0.32335	  0.25724	  0.21423	  0.38071	  0.02867	  0.66092	703.64001	 21.30	
  5.093	-85.207	  0.65087	  0.28976	  0.28795	  0.20555	  0.39109	  0.02644	  0.66011	703.65002	 21.30	
  5.105	-104.191	  0.64794	  0.25751	  0.31947	  0.20624	  0.38814	  0.02538	  0.65849	703.53003	 21.40	
  5.095	-123.033	  0.64891	  0.23094	  0.35043	  0.21808	  0.37431	  0.02539	  0.65916	703.62000	 21.40	
  5.109	-142.013	  0.64924	  0.20984	  0.37573	  0.23772	  0.35202	  0.02612	  0.65890	703.73999	 21.40	
  5.099	-161.165	  0.65058	  0.19722	  0.39362	  0.26514	  0.32414	  0.02997	  0.65838	703.75000	 21.40	
  5.100	180.000	  0.65282	  0.19554	  0.40054	  0.29737	  0.29491	  0.03457	  0.65877	703.63000	 21.40	
  6.800	180.000	  0.64543	  0.15876	  0.43063	  0.29171	  0.28772	  0.02800	  0.65740	703.62000	 21.40	
  6.796	-166.229	  0.64441	  0.16250	  0.42493	  0.26026	  0.31734	  0.02611	  0.65743	703.67999	 21.40	
  6.808	-152.311	  0.64320	  0.16963	  0.41153	  0.22969	  0.34845	  0.02393	  0.65839	703.59998	 21.40	
  6.795	-138.383	  0.64328	  0.18450	  0.39167	  0.20548	  0.37627	  0.01918	  0.65971	703.63000	 21.40	
  6.792	-124.591	  0.64163	  0.20457	  0.36436	  0.18654	  0.39604	  0.01672	  0.65831	703.66998	 21.40	
  6.787	-110.754	  0.64031	  0.22981	  0.33449	  0.17261	  0.41172	  0.01478	  0.65782	703.69000	 21.40	
  6.800	-96.985	  0.64664	  0.26033	  0.30610	  0.16666	  0.42406	  0.01541	  0.66206	703.89001	 21.40	
  6.800	-83.015	  0.64438	  0.29326	  0.27259	  0.16692	  0.42256	  0.01655	  0.66093	703.72998	 21.40	
  6.787	-69.246	  0.64334	  0.32434	  0.24107	  0.17381	  0.41104	  0.02049	  0.65745	703.65002	 21.40	
  6.792	-55.409	  0.64399	  0.35562	  0.21514	  0.18541	  0.39650	  0.02311	  0.65836	703.56000	 21.40	
  6.795	-41.617	  0.64940	  0.38577	  0.19560	  0.20576	  0.37917	  0.02629	  0.66368	703.75000	 21.40	
  6.808	-27.689	  0.64739	  0.40400	  0.18073	  0.23237	  0.34599	  0.03111	  0.65943	703.70001	 21.40	
  6.796	-13.771	  0.64913	  0.41818	  0.17261	  0.26188	  0.31747	  0.03453	  0.65991	703.71997	 21.40	
  6.800	  0.000	  0.64897	  0.42321	  0.17000	  0.29162	  0.28882	  0.03704	  0.65734	703.83002	 21.40	
  6.796	 13.771	  0.65137	  0.42258	  0.17374	  0.32718	  0.25859	  0.04056	  0.65883	703.77002	 21.40	
  6.808	 27.689	  0.64829	  0.40806	  0.18438	  0.35791	  0.23020	  0.04349	  0.65458	703.73999	 21.40	
  6.795	 41.617	  0.65500	  0.39138	  0.20188	  0.39170	  0.20671	  0.04620	  0.66080	703.77002	 21.40	
  6.792	 55.409	  0.65884	  0.36755	  0.22410	  0.41516	  0.19166	  0.04693	  0.66324	703.71997	 21.40	
  6.787	 69.246	  0.65222	  0.33408	  0.25019	  0.42943	  0.17814	  0.04792	  0.65733	703.71002	 21.40	
  6.800	 83.015	  0.65813	  0.30516	  0.28114	  0.44164	  0.17426	  0.04693	  0.66191	703.77002	 21.40	
  6.800	 96.985	  0.65503	  0.27184	  0.31280	  0.43992	  0.17305	  0.04602	  0.65954	703.71002	 21.40	
  6.787	110.754	  0.65403	  0.24160	  0.34512	  0.43052	  0.18031	  0.04429	  0.65908	703.70001	 21.40	
  6.792	124.591	  0.65522	  0.21397	  0.37529	  0.41508	  0.19079	  0.04285	  0.66113	703.65002	 21.40	
  6.795	138.383	  0.65228	  0.19144	  0.39829	  0.38948	  0.20762	  0.03942	  0.65910	703.71002	 21.40	
  6.808	152.311	  0.64955	  0.17637	  0.41662	  0.35930	  0.23262	  0.03774	  0.65766	703.73999	 21.40	
  6.796	166.229	  0.65001	  0.16444	  0.42910	  0.32818	  0.25783	  0.03250	  0.65954	703.69000	 21.40	
  8.491	168.704	  0.63906	  0.12599	  0.45721	  0.31988	  0.24882	  0.02443	  0.65679	703.65002	 21.40	
  8.502	157.493	  0.64389	  0.13525	  0.45031	  0.35532	  0.22233	  0.02615	  0.66004	703.71002	 21.40	
  8.494	146.194	  0.64198	  0.15029	  0.43266	  0.38505	  0.19712	  0.03252	  0.65749	703.71002	 21.40	
  8.495	135.039	  0.64586	  0.16998	  0.41232	  0.41535	  0.17706	  0.03502	  0.66017	703.71997	 21.40	
  8.487	123.723	  0.64682	  0.19240	  0.38511	  0.43917	  0.15901	  0.03517	  0.65892	703.69000	 21.40	
  8.492	112.575	  0.64547	  0.21811	  0.35443	  0.45562	  0.14691	  0.03955	  0.65773	703.79999	 21.40	
  8.510	101.220	  0.64810	  0.25069	  0.32238	  0.46752	  0.13999	  0.04068	  0.65860	703.65997	 21.40	
  8.500	 90.000	  0.65280	  0.28417	  0.29200	  0.47384	  0.13828	  0.04045	  0.66216	703.71997	 21.40	
  8.510	 78.780	  0.65385	  0.31749	  0.26000	  0.47206	  0.14139	  0.04247	  0.66340	703.72998	 21.40	
  8.492	 67.425	  0.65981	  0.35335	  0.23248	  0.46322	  0.14946	  0.04224	  0.66973	703.73999	 21.40	
  8.487	 56.277	  0.64812	  0.37630	  0.20254	  0.43850	  0.15835	  0.04259	  0.65794	703.71997	 21.40	
  8.495	 44.961	  0.64485	  0.40289	  0.17742	  0.41351	  0.17460	  0.04000	  0.65595	703.83002	 21.40	
  8.494	 33.806	  0.64389	  0.42539	  0.15929	  0.38515	  0.19579	  0.03980	  0.65643	703.67999	 21.40	
  8.502	 22.507	  0.64467	  0.44271	  0.14571	  0.35260	  0.22244	  0.03800	  0.65844	703.73999	 21.40	
  8.491	 11.296	  0.64383	  0.45222	  0.13684	  0.31933	  0.24968	  0.03445	  0.65913	703.70001	 21.40	
  8.500	  0.000	  0.63737	  0.45092	  0.13071	  0.28329	  0.27757	  0.03100	  0.65398	703.78998	 21.40	
  8.491	-11.296	  0.64226	  0.44993	  0.13382	  0.25172	  0.31212	  0.02811	  0.65963	703.67999	 21.40	
  8.502	-22.507	  0.64273	  0.43900	  0.14040	  0.22179	  0.34353	  0.02361	  0.66147	703.81000	 21.40	
  8.494	-33.806	  0.63540	  0.41706	  0.15109	  0.19228	  0.37013	  0.01817	  0.65687	703.81000	 21.40	
  8.495	-44.961	  0.63129	  0.39095	  0.16761	  0.16843	  0.39450	  0.01583	  0.65397	703.72998	 21.40	
  8.487	-56.277	  0.63459	  0.36487	  0.19116	  0.15147	  0.41882	  0.01481	  0.65923	703.89001	 21.40	
  8.492	-67.425	  0.63302	  0.33273	  0.21604	  0.13669	  0.43498	  0.01041	  0.65763	703.76001	 21.40	
  8.510	-78.780	  0.63410	  0.30128	  0.24464	  0.12925	  0.44537	  0.00785	  0.65908	703.71997	 21.40	
  8.500	-90.000	  0.63416	  0.26865	  0.27704	  0.12720	  0.45095	  0.00574	  0.66023	703.75000	 21.40	
  8.510	-101.220	  0.62886	  0.23470	  0.30845	  0.12951	  0.44245	  0.00695	  0.65515	703.70001	 21.40	
  8.492	-112.575	  0.63035	  0.20642	  0.34187	  0.13870	  0.43337	  0.00713	  0.65655	703.70001	 21.40	
  8.487	-123.723	  0.63143	  0.18059	  0.37263	  0.15150	  0.41718	  0.00675	  0.65637	703.72998	 21.40	
  8.495	-135.039	  0.63406	  0.16021	  0.40222	  0.17125	  0.39682	  0.00933	  0.65825	703.71002	 21.40	
  8.494	-146.194	  0.63409	  0.14392	  0.42517	  0.19427	  0.37051	  0.01200	  0.65706	703.79999	 21.40	
  8.502	-157.493	  0.63760	  0.13153	  0.44543	  0.22151	  0.34289	  0.01564	  0.66100	703.83002	 21.40	
  8.491	-168.704	  0.63487	  0.12425	  0.45429	  0.25219	  0.30938	  0.01763	  0.65598	703.78998	 21.40	
  8.500	180.000	  0.63700	  0.12371	  0.46028	  0.28556	  0.28035	  0.02049	  0.65723	703.78998	 21.40	
 10.200	180.000	  0.63423	  0.08588	  0.49317	  0.27930	  0.27367	  0.01151	  0.66437	703.79999	 21.40	
 10.191	-170.497	  0.62866	  0.08671	  0.48587	  0.24330	  0.30353	  0.00895	  0.65983	703.85999	 21.40	
 10.210	-161.034	  0.62886	  0.09166	  0.47699	  0.21147	  0.33596	  0.00718	  0.66298	703.78998	 21.40	
 10.194	-151.526	  0.62530	  0.10145	  0.45916	  0.18183	  0.36499	  0.00479	  0.65928	703.71997	 21.40	
 10.190	-142.105	  0.62555	  0.11625	  0.43964	  0.15789	  0.39432	  0.00122	  0.66134	703.65002	 21.40	
 10.215	-132.646	  0.62549	  0.13473	  0.41279	  0.13559	  0.42119	 -0.00093	  0.66277	703.71002	 21.40	
 10.203	-123.092	  0.62071	  0.15624	  0.38074	  0.11664	  0.44093	 -0.00400	  0.65877	703.84998	 21.40	
 10.192	-113.678	  0.62327	  0.18205	  0.35178	  0.10362	  0.45819	 -0.00384	  0.66036	703.96002	 21.40	
 10.208	-104.249	  0.62650	  0.21195	  0.32002	  0.09544	  0.47291	 -0.00596	  0.66380	703.77002	 21.40	
 10.210	-94.801	  0.62023	  0.24140	  0.28292	  0.08938	  0.47486	 -0.00649	  0.65797	703.78998	 21.40	
 10.210	-85.199	  0.62145	  0.27438	  0.25049	  0.08942	  0.47443	 -0.00354	  0.65837	703.89001	 21.40	
 10.208	-75.751	  0.62193	  0.30863	  0.21904	  0.09409	  0.46911	 -0.00436	  0.65756	703.77002	 21.40	
 10.192	-66.322	  0.62290	  0.34157	  0.19112	  0.10252	  0.45819	 -0.00052	  0.65781	703.84003	 21.40	
 10.203	-56.908	  0.62292	  0.37290	  0.16487	  0.11436	  0.44152	  0.00327	  0.65790	703.82001	 21.40	
 10.215	-47.354	  0.62522	  0.40261	  0.14393	  0.13298	  0.42134	  0.00492	  0.65838	703.83002	 21.40	
 10.190	-37.895	  0.62911	  0.43022	  0.12571	  0.15622	  0.39592	  0.00962	  0.66133	703.88000	 21.40	
 10.194	-28.474	  0.63088	  0.45292	  0.11259	  0.18263	  0.36868	  0.01241	  0.66168	703.84998	 21.40	
 10.210	-18.966	  0.63029	  0.46830	  0.10305	  0.21055	  0.33755	  0.01799	  0.65889	703.78998	 21.40	
 10.191	 -9.503	  0.63172	  0.47909	  0.09778	  0.24274	  0.30436	  0.02130	  0.65919	703.71002	 21.40	
 10.200	  0.000	  0.63362	  0.48336	  0.09697	  0.27637	  0.27352	  0.02398	  0.66008	703.79999	 21.40	
 10.191	  9.503	  0.63825	  0.48420	  0.10060	  0.31260	  0.24364	  0.02738	  0.66292	703.75000	 21.40	
 10.210	 18.966	  0.63906	  0.47592	  0.10825	  0.34724	  0.21432	  0.02972	  0.66314	703.78003	 21.40	
 10.194	 28.474	  0.63900	  0.46113	  0.11971	  0.38022	  0.18686	  0.03362	  0.66246	703.82001	 21.40	
 10.190	 37.895	  0.63774	  0.43958	  0.13626	  0.40969	  0.16386	  0.03600	  0.65806	703.78998	 21.40	
 10.215	 47.354	  0.64206	  0.41812	  0.15718	  0.44071	  0.14556	  0.03569	  0.66161	703.84998	 21.40	
 10.203	 56.908	  0.64165	  0.38913	  0.18053	  0.46337	  0.12842	  0.03572	  0.66053	703.78003	 21.40	
 10.192	 66.322	  0.64480	  0.35959	  0.20786	  0.48408	  0.11577	  0.03718	  0.66473	703.90997	 21.40	
 10.208	 75.751	  0.64092	  0.32504	  0.23659	  0.49419	  0.10861	  0.03773	  0.65992	703.90997	 21.40	
 10.210	 85.199	  0.64209	  0.29250	  0.26856	  0.50170	  0.10455	  0.03661	  0.66059	703.84003	 21.40	
 10.210	 94.801	  0.64108	  0.25833	  0.30134	  0.50085	  0.10395	  0.03556	  0.65926	703.89001	 21.40	
 10.208	104.249	  0.64096	  0.22691	  0.33427	  0.49479	  0.10851	  0.03584	  0.66087	703.82001	 21.40	
 10.192	113.678	  0.63942	  0.19691	  0.36676	  0.48144	  0.11553	  0.03390	  0.66000	703.87000	 21.40	
 10.203	123.092	  0.63879	  0.17036	  0.39643	  0.46459	  0.12731	  0.03184	  0.66077	703.82001	 21.40	
 10.215	132.646	  0.63888	  0.14663	  0.42511	  0.44015	  0.14507	  0.02874	  0.66178	703.83002	 21.40	
 10.190	142.105	  0.63546	  0.12690	  0.44745	  0.41144	  0.16434	  0.02668	  0.65945	703.85999	 21.40	
 10.194	151.526	  0.63097	  0.10995	  0.46361	  0.37936	  0.18657	  0.02310	  0.65639	703.81000	 21.40	
 10.210	161.034	  0.63471	  0.09766	  0.48194	  0.34811	  0.21327	  0.01929	  0.66184	703.73999	 21.40	
 10.191	170.497	  0.63026	  0.09008	  0.48693	  0.31204	  0.24097	  0.01464	  0.65916	703.84003	 21.40	
 11.899	171.783	  0.61868	  0.05332	  0.51453	  0.30296	  0.23002	  0.00507	  0.66075	703.84998	 21.40	
 11.890	163.610	  0.62274	  0.06065	  0.50953	  0.33970	  0.20216	  0.00903	  0.66220	703.85999	 21.40	
 11.889	155.445	  0.62143	  0.07179	  0.49633	  0.37181	  0.17604	  0.01318	  0.65994	703.76001	 21.40	
 11.909	147.299	  0.62261	  0.08520	  0.47991	  0.40391	  0.15161	  0.01741	  0.65934	703.78003	 21.40	
 11.902	139.148	  0.62195	  0.10234	  0.45676	  0.43290	  0.13043	  0.01951	  0.65787	703.94000	 21.40	
 11.894	130.867	  0.62768	  0.12309	  0.43415	  0.46352	  0.11168	  0.02197	  0.66275	703.79999	 21.40	
 11.897	122.732	  0.62670	  0.14695	  0.40366	  0.48660	  0.09512	  0.02361	  0.65994	703.78998	 21.40	
 11.903	114.597	  0.62793	  0.17383	  0.37459	  0.50433	  0.08498	  0.02706	  0.66030	703.76001	 21.40	
 11.893	106.346	  0.63049	  0.20328	  0.34221	  0.51733	  0.07730	  0.02736	  0.66093	703.78003	 21.40	
 11.892	 98.155	  0.62797	  0.23332	  0.30770	  0.52440	  0.07048	  0.02989	  0.65742	703.77002	 21.40	
 11.900	 90.000	  0.62687	  0.26530	  0.27480	  0.52622	  0.06986	  0.02950	  0.65613	703.81000	 21.40	
 11.892	 81.845	  0.64036	  0.30345	  0.24668	  0.53383	  0.07209	  0.03002	  0.66983	703.78003	 21.40	
 11.893	 73.654	  0.62947	  0.33292	  0.21192	  0.51782	  0.07589	  0.03116	  0.65841	703.84003	 21.40	
 11.903	 65.403	  0.63016	  0.36606	  0.18230	  0.50458	  0.08329	  0.03010	  0.65984	703.76001	 21.40	
 11.897	 57.268	  0.63232	  0.39876	  0.15702	  0.48726	  0.09551	  0.02931	  0.66306	703.71997	 21.40	
 11.894	 49.133	  0.62846	  0.42608	  0.13291	  0.46209	  0.11009	  0.02789	  0.65949	703.70001	 21.40	
 11.902	 40.852	  0.62777	  0.45178	  0.11268	  0.43421	  0.13027	  0.02720	  0.65909	703.77002	 21.40	
 11.909	 32.701	  0.63080	  0.47577	  0.09394	  0.40525	  0.15183	  0.02647	  0.66405	703.72998	 21.40	
 11.889	 24.555	  0.63029	  0.49334	  0.08066	  0.37345	  0.17614	  0.02525	  0.66476	703.78003	 21.40	
 11.890	 16.390	  0.62230	  0.50035	  0.07005	  0.33591	  0.20214	  0.02086	  0.65825	703.76001	 21.40	
 11.899	  8.217	  0.62321	  0.50928	  0.06335	  0.30182	  0.23133	  0.01796	  0.66019	703.72998	 21.40	
 11.900	  0.000	  0.61784	  0.50811	  0.05974	  0.26554	  0.26132	  0.01540	  0.65614	703.70001	 21.40	
 11.899	 -8.217	  0.62019	  0.50623	  0.06113	  0.23253	  0.29485	  0.01235	  0.65978	703.76001	 21.40	
 11.890	-16.390	  0.61762	  0.49632	  0.06478	  0.19974	  0.32606	  0.00899	  0.65960	703.84998	 21.40	
 11.889	-24.555	  0.61908	  0.48323	  0.07318	  0.17213	  0.35823	  0.00657	  0.66139	703.72998	 21.40	
 11.909	-32.701	  0.61459	  0.46256	  0.08487	  0.14346	  0.38572	  0.00082	  0.65878	703.81000	 21.40	
 11.902	-40.852	  0.61141	  0.43727	  0.09927	  0.11931	  0.41354	 -0.00462	  0.65763	703.75000	 21.40	
 11.894	-49.133	  0.61330	  0.41108	  0.11965	  0.09805	  0.44201	 -0.00642	  0.65961	703.90997	 21.40	
 11.897	-57.268	  0.61237	  0.38135	  0.14053	  0.08218	  0.46215	 -0.00758	  0.66077	703.81000	 21.40	
 11.903	-65.403	  0.61320	  0.34928	  0.16730	  0.06908	  0.48104	 -0.00971	  0.66228	703.71002	 21.40	
 11.893	-73.654	  0.60876	  0.31276	  0.19423	  0.05887	  0.49012	 -0.01321	  0.65809	703.88000	 21.40	
 11.892	-81.845	  0.60824	  0.27931	  0.22638	  0.05409	  0.49861	 -0.01204	  0.65814	703.82001	 21.40	
 11.900	-90.000	  0.60675	  0.24488	  0.25749	  0.05122	  0.50053	 -0.01567	  0.65598	703.90002	 21.40	
 11.892	-98.155	  0.61014	  0.21477	  0.29224	  0.05564	  0.49875	 -0.01524	  0.66146	703.88000	 21.40	
 11.893	-106.346	  0.61140	  0.18354	  0.32563	  0.06068	  0.49172	 -0.01526	  0.66151	703.72998	 21.40	
 11.903	-114.597	  0.60886	  0.15460	  0.35857	  0.06894	  0.47732	 -0.01561	  0.66062	703.75000	 21.40	
 11.897	-122.732	  0.60552	  0.13070	  0.38687	  0.08407	  0.45793	 -0.01070	  0.65631	703.85999	 21.40	
 11.894	-130.867	  0.60397	  0.10779	  0.41616	  0.10039	  0.43349	 -0.01105	  0.65437	703.89001	 21.40	
 11.902	-139.148	  0.60897	  0.08800	  0.44615	  0.12078	  0.41131	 -0.01142	  0.65799	703.83002	 21.40	
 11.909	-147.299	  0.61295	  0.07209	  0.47199	  0.14480	  0.38539	 -0.00830	  0.66228	703.81000	 21.40	
 11.889	-155.445	  0.61255	  0.06271	  0.48804	  0.17134	  0.35618	 -0.00770	  0.65965	703.78998	 21.40	
 11.890	-163.610	  0.61147	  0.05535	  0.50097	  0.20021	  0.32486	 -0.00114	  0.65762	703.81000	 21.40	
 11.899	-171.783	  0.61491	  0.05122	  0.51092	  0.23387	  0.29301	 -0.00018	  0.65903	703.82001	 21.40	
 11.900	180.000	  0.61564	  0.05173	  0.51428	  0.26758	  0.26162	  0.00310	  0.65867	703.91998	 21.40	
 13.600	180.000	  0.60466	  0.01442	  0.54328	  0.25736	  0.25071	 -0.00479	  0.66271	703.98999	 21.40	
 13.608	-172.853	  0.59853	  0.01543	  0.53466	  0.22283	  0.28022	 -0.00820	  0.65730	703.92999	 21.40	
 13.611	-165.583	  0.59955	  0.01828	  0.52952	  0.19107	  0.31422	 -0.00998	  0.65904	703.85999	 21.40	
 13.601	-158.353	  0.59700	  0.02501	  0.51298	  0.15936	  0.34478	 -0.01234	  0.65768	703.92999	 21.40	
 13.609	-151.210	  0.59571	  0.03502	  0.49659	  0.13146	  0.37548	 -0.01768	  0.65920	703.77002	 21.40	
 13.611	-143.999	  0.59316	  0.04672	  0.47411	  0.10572	  0.40462	 -0.02193	  0.65743	703.78003	 21.40	
 13.601	-136.825	  0.59780	  0.06402	  0.45328	  0.08715	  0.43092	 -0.02783	  0.66170	703.81000	 21.40	
 13.596	-129.640	  0.59407	  0.08207	  0.42338	  0.06788	  0.45342	 -0.02752	  0.65827	703.70001	 21.40	
 13.611	-122.431	  0.59638	  0.10308	  0.39564	  0.04662	  0.48160	 -0.02376	  0.66332	703.78003	 21.40	
 13.604	-115.211	  0.59425	  0.13000	  0.36202	  0.03801	  0.49396	 -0.02770	  0.65949	703.76001	 21.40	
 13.595	-108.042	  0.59431	  0.15640	  0.32888	  0.02677	  0.50977	 -0.02935	  0.66132	703.82001	 21.40	
 13.607	-100.793	  0.59878	  0.18812	  0.29601	  0.01897	  0.52369	 -0.03034	  0.66571	703.69000	 21.40	
 13.601	-93.617	  0.59386	  0.21738	  0.25935	  0.01397	  0.52321	 -0.02803	  0.66060	703.83002	 21.40	
 13.601	-86.383	  0.59692	  0.25225	  0.22644	  0.01344	  0.52612	 -0.02860	  0.66412	703.81000	 21.40	
 13.607	-79.207	  0.59115	  0.28438	  0.19402	  0.01759	  0.51648	 -0.02366	  0.65679	703.78003	 21.40	
 13.595	-71.958	  0.60001	  0.32257	  0.16605	  0.02320	  0.51541	 -0.02502	  0.66532	703.71002	 21.40	
 13.604	-64.789	  0.59454	  0.35309	  0.13664	  0.03263	  0.49486	 -0.02318	  0.65876	703.65997	 21.40	
 13.611	-57.569	  0.59098	  0.38253	  0.11283	  0.04676	  0.47551	 -0.01494	  0.65320	703.70001	 21.40	
 13.596	-50.360	  0.60128	  0.41911	  0.09237	  0.06356	  0.46152	 -0.01407	  0.66446	703.72998	 21.40	
 13.601	-43.175	  0.59836	  0.44490	  0.07294	  0.08226	  0.43465	 -0.01367	  0.65927	703.81000	 21.40	
 13.611	-36.001	  0.60005	  0.47090	  0.05682	  0.10499	  0.40808	 -0.01084	  0.66110	703.84998	 21.40	
 13.609	-28.790	  0.59968	  0.49075	  0.04469	  0.12852	  0.37777	 -0.00856	  0.65836	703.83002	 21.40	
 13.601	-21.647	  0.60196	  0.50917	  0.03426	  0.15814	  0.34612	 -0.00063	  0.65910	703.79999	 21.40	
 13.611	-14.417	  0.60503	  0.52401	  0.02752	  0.18939	  0.31640	  0.00129	  0.66212	703.87000	 21.40	
 13.608	 -7.147	  0.60639	  0.53254	  0.02516	  0.22126	  0.28303	  0.00523	  0.66136	704.00000	 21.40	
 13.600	  0.000	  0.60736	  0.53621	  0.02550	  0.25582	  0.25224	  0.00931	  0.66147	703.90997	 21.40	
 13.608	  7.147	  0.60677	  0.53266	  0.02766	  0.28830	  0.21978	  0.01048	  0.65925	704.02002	 21.40	
 13.611	 14.417	  0.60865	  0.52744	  0.03292	  0.32409	  0.18980	  0.01233	  0.65942	703.96002	 21.40	
 13.601	 21.647	  0.61325	  0.52012	  0.04249	  0.36090	  0.16285	  0.01246	  0.66242	703.90997	 21.40	
 13.609	 28.790	  0.60962	  0.50035	  0.05432	  0.39143	  0.13710	  0.01612	  0.65744	703.91998	 21.40	
 13.611	 36.001	  0.61672	  0.48500	  0.06965	  0.42743	  0.11484	  0.01920	  0.66258	703.94000	 21.40	
 13.601	 43.175	  0.61372	  0.45923	  0.08748	  0.45450	  0.09467	  0.01725	  0.65867	703.87000	 21.40	
 13.596	 50.360	  0.61064	  0.42965	  0.10666	  0.47846	  0.07636	  0.01902	  0.65472	703.88000	 21.40	
 13.611	 57.569	  0.61607	  0.40288	  0.13190	  0.50552	  0.06275	  0.02007	  0.66032	703.92999	 21.40	
 13.604	 64.789	  0.61585	  0.37151	  0.15723	  0.52410	  0.05050	  0.02045	  0.65947	703.90002	 21.40	
 13.595	 71.958	  0.61865	  0.34107	  0.18674	  0.54064	  0.04314	  0.02313	  0.66188	703.92999	 21.40	
 13.607	 79.207	  0.62111	  0.30777	  0.21807	  0.55209	  0.03763	  0.02022	  0.66552	703.91998	 21.40	
 13.601	 86.383	  0.61468	  0.27092	  0.24716	  0.55193	  0.03420	  0.01933	  0.65924	703.78998	 21.40	
 13.601	 93.617	  0.61340	  0.23900	  0.28025	  0.55143	  0.03562	  0.01983	  0.65679	703.91998	 21.40	
 13.607	100.793	  0.61587	  0.20754	  0.31494	  0.54822	  0.03814	  0.01906	  0.65995	703.79999	 21.40	
 13.595	108.042	  0.61368	  0.17715	  0.34809	  0.53645	  0.04486	  0.01872	  0.65934	703.95001	 21.40	
 13.604	115.211	  0.61296	  0.14915	  0.37986	  0.52316	  0.05295	  0.01689	  0.65960	703.89001	 21.40	
 13.611	122.431	  0.61112	  0.12260	  0.40953	  0.50377	  0.06340	  0.01503	  0.65831	703.91998	 21.40	
 13.596	129.640	  0.60700	  0.09880	  0.43725	  0.47861	  0.07800	  0.01407	  0.65589	703.89001	 21.40	
 13.601	136.825	  0.60888	  0.07919	  0.46433	  0.45466	  0.09543	  0.01336	  0.65814	703.90997	 21.40	
 13.611	143.999	  0.61055	  0.06150	  0.48950	  0.42785	  0.11540	  0.00890	  0.66145	703.95001	 21.40	
 13.609	151.210	  0.60975	  0.04583	  0.50968	  0.39575	  0.13775	  0.00633	  0.66248	703.96002	 21.50	
 13.601	158.353	  0.60826	  0.03394	  0.52298	  0.36238	  0.16322	  0.00335	  0.66042	703.91998	 21.40	
 13.611	165.583	  0.60485	  0.02434	  0.53301	  0.32612	  0.19060	  0.00012	  0.65982	703.94000	 21.40	
 13.608	172.853	  0.60551	  0.01871	  0.54141	  0.29171	  0.22025	 -0.00130	  0.66195	703.87000	 21.40	
 15.298	173.587	  0.58537	 -0.01622	  0.56048	  0.27813	  0.20685	 -0.01038	  0.65977	703.89001	 21.40	
 15.291	167.167	  0.58691	 -0.01019	  0.55594	  0.31291	  0.17812	 -0.00638	  0.65912	703.78998	 21.40	
 15.307	160.676	  0.58835	 -0.00152	  0.54661	  0.34848	  0.15060	 -0.00685	  0.66017	703.84003	 21.40	
 15.300	154.261	  0.58741	  0.00859	  0.53173	  0.37948	  0.12562	 -0.00293	  0.65635	703.81000	 21.40	
 15.288	147.854	  0.58906	  0.02052	  0.51427	  0.41348	  0.10094	 -0.00223	  0.65740	703.78998	 21.40	
 15.293	141.428	  0.59141	  0.03830	  0.49408	  0.44445	  0.08143	  0.00204	  0.65804	703.94000	 21.40	
 15.299	134.985	  0.59644	  0.05616	  0.47319	  0.47582	  0.06337	  0.00390	  0.66114	703.84003	 21.50	
 15.305	128.583	  0.60362	  0.07681	  0.45080	  0.50598	  0.04793	  0.00250	  0.66874	703.90002	 21.40	
 15.309	122.142	  0.59719	  0.10115	  0.41644	  0.52303	  0.03434	  0.00756	  0.66052	703.77002	 21.50	
 15.304	115.711	  0.59832	  0.12571	  0.38418	  0.54204	  0.02261	  0.00833	  0.66075	703.76001	 21.50	
 15.297	109.291	  0.60030	  0.15367	  0.35269	  0.55906	  0.01440	  0.01095	  0.66191	703.78998	 21.40	
 15.293	102.897	  0.60173	  0.18098	  0.32049	  0.56947	  0.00704	  0.01100	  0.66263	703.85999	 21.50	
 15.293	 96.458	  0.59689	  0.21169	  0.28423	  0.57093	  0.00488	  0.01128	  0.65475	703.82001	 21.50	
 15.300	 90.000	  0.60287	  0.24582	  0.25395	  0.57939	  0.00216	  0.00820	  0.66211	703.71002	 21.50	
 15.293	 83.542	  0.59687	  0.27643	  0.22041	  0.56981	  0.00547	  0.01004	  0.65533	703.90002	 21.50	
 15.293	 77.103	  0.60171	  0.31104	  0.19034	  0.56794	  0.00839	  0.01191	  0.65967	703.90002	 21.50	
 15.297	 70.709	  0.60636	  0.34740	  0.16188	  0.56181	  0.01313	  0.01178	  0.66514	703.89001	 21.50	
 15.304	 64.289	  0.60327	  0.37927	  0.13377	  0.54426	  0.02191	  0.00958	  0.66288	703.82001	 21.50	
 15.309	 57.858	  0.60037	  0.40833	  0.10861	  0.52201	  0.03319	  0.00952	  0.65799	703.95001	 21.50	
 15.305	 51.417	  0.60167	  0.43941	  0.08581	  0.50076	  0.04698	  0.01022	  0.66163	703.97998	 21.50	
 15.299	 45.015	  0.60122	  0.46627	  0.06431	  0.47520	  0.06260	  0.00699	  0.66163	703.90997	 21.50	
 15.293	 38.572	  0.59980	  0.49042	  0.04826	  0.44646	  0.08232	  0.00816	  0.66068	703.83002	 21.50	
 15.288	 32.146	  0.59650	  0.50903	  0.03191	  0.41312	  0.10356	  0.00817	  0.65747	703.85999	 21.50	
 15.300	 25.739	  0.59519	  0.52665	  0.01869	  0.38024	  0.12576	  0.00756	  0.65839	703.81000	 21.50	
 15.307	 19.324	  0.59139	  0.53878	  0.00702	  0.34573	  0.15097	  0.00389	  0.65509	703.82001	 21.50	
 15.291	 12.833	  0.59304	  0.55146	 -0.00262	  0.31097	  0.17884	  0.00001	  0.65891	703.84003	 21.50	
 15.298	  6.413	  0.59122	  0.55610	 -0.00628	  0.27575	  0.20988	 -0.00025	  0.65876	703.77002	 21.50	
 15.300	  0.000	  0.59025	  0.55902	 -0.01120	  0.24221	  0.23816	 -0.00166	  0.65994	703.82001	 21.50	
 15.298	 -6.413	  0.59243	  0.55757	 -0.00911	  0.20914	  0.27314	 -0.00539	  0.66340	703.85999	 21.50	
 15.291	-12.833	  0.58706	  0.54654	 -0.00635	  0.17683	  0.30264	 -0.00508	  0.65930	703.75000	 21.50	
 15.307	-19.324	  0.58626	  0.53490	 -0.00170	  0.14543	  0.33529	 -0.01121	  0.65934	703.85999	 21.50	
 15.300	-25.739	  0.58368	  0.51755	  0.00579	  0.11823	  0.36506	 -0.01596	  0.65830	703.82001	 21.50	
 15.288	-32.146	  0.58271	  0.49822	  0.01719	  0.09150	  0.39562	 -0.01677	  0.65763	703.83002	 21.50	
 15.293	-38.572	  0.57783	  0.47128	  0.03172	  0.06804	  0.42161	 -0.02234	  0.65340	703.83002	 21.50	
 15.299	-45.015	  0.57825	  0.44689	  0.04703	  0.04672	  0.44992	 -0.02508	  0.65600	703.71002	 21.50	
 15.305	-51.417	  0.58255	  0.42258	  0.06554	  0.02731	  0.47956	 -0.02614	  0.66261	703.71002	 21.50	
 15.309	-57.858	  0.57886	  0.39029	  0.08730	  0.01200	  0.49751	 -0.02706	  0.66149	703.82001	 21.50	
 15.304	-64.289	  0.58020	  0.35749	  0.11216	 -0.00002	  0.51678	 -0.03003	  0.66270	703.82001	 21.50	
 15.297	-70.709	  0.57747	  0.32335	  0.13926	 -0.00863	  0.52839	 -0.03214	  0.66023	703.71002	 21.50	
 15.293	-77.103	  0.57661	  0.29021	  0.16751	 -0.01540	  0.53903	 -0.03307	  0.65910	703.79999	 21.50	
 15.293	-83.542	  0.57693	  0.25571	  0.19876	 -0.01854	  0.54447	 -0.03224	  0.65944	703.85999	 21.50	
 15.300	-90.000	  0.57585	  0.22174	  0.22958	 -0.02141	  0.54633	 -0.03294	  0.65906	703.85999	 21.50	
 15.293	-96.458	  0.57734	  0.18927	  0.26464	 -0.01975	  0.54609	 -0.03015	  0.66005	703.79999	 21.50	
 15.293	-102.897	  0.57785	  0.15782	  0.29906	 -0.01603	  0.54067	 -0.03379	  0.66381	703.84003	 21.50	
 15.297	-109.291	  0.57655	  0.12950	  0.33269	 -0.00775	  0.52858	 -0.03237	  0.66099	703.69000	 21.50	
 15.304	-115.711	  0.57785	  0.10297	  0.36607	  0.00131	  0.51578	 -0.03248	  0.66264	703.71997	 21.50	
 15.309	-122.142	  0.57980	  0.07831	  0.39952	  0.01356	  0.49907	 -0.03132	  0.66421	703.73999	 21.50	
 15.305	-128.583	  0.57784	  0.05675	  0.42763	  0.03073	  0.47573	 -0.02910	  0.66230	703.69000	 21.50	
 15.299	-134.985	  0.58175	  0.03714	  0.45932	  0.04819	  0.45289	 -0.02822	  0.66376	703.65997	 21.50	
 15.293	-141.428	  0.58063	  0.02305	  0.48325	  0.07152	  0.42457	 -0.02910	  0.66302	703.76001	 21.50	
 15.288	-147.854	  0.57772	  0.00649	  0.50417	  0.09140	  0.39366	 -0.02224	  0.65891	703.70001	 21.50	
 15.300	-154.261	  0.57384	 -0.00278	  0.51970	  0.11904	  0.36022	 -0.02162	  0.65353	703.77002	 21.50	
 15.307	-160.676	  0.58182	 -0.01056	  0.54035	  0.14901	  0.33291	 -0.01951	  0.66052	703.78003	 21.50	
 15.291	-167.167	  0.58565	 -0.01629	  0.55505	  0.18005	  0.30244	 -0.01871	  0.66379	703.77002	 21.50	
 15.298	-173.587	  0.58304	 -0.01941	  0.55901	  0.21102	  0.26725	 -0.01528	  0.65909	703.71002	 21.50	
 15.300	180.000	  0.58269	 -0.01860	  0.56162	  0.24407	  0.23517	 -0.01201	  0.65790	703.72998	 21.50	
 17.000	180.000	  0.56602	 -0.05230	  0.58356	  0.23110	  0.22272	 -0.01979	  0.66063	703.87000	 21.50	
 16.990	-174.179	  0.56660	 -0.05467	  0.58299	  0.19745	  0.25466	 -0.02471	  0.66354	703.77002	 21.50	
 17.009	-168.383	  0.55837	 -0.05112	  0.56909	  0.16393	  0.28370	 -0.02332	  0.65444	703.77002	 21.50	
 17.000	-162.596	  0.56328	 -0.04717	  0.56337	  0.13518	  0.31765	 -0.02881	  0.66171	703.73999	 21.50	
 16.990	-156.759	  0.55830	 -0.03940	  0.54509	  0.10611	  0.34780	 -0.03352	  0.65720	703.78998	 21.50	
 16.995	-150.919	  0.55802	 -0.03152	  0.52935	  0.08000	  0.37745	 -0.03349	  0.65864	703.76001	 21.50	
 16.988	-145.161	  0.55687	 -0.01838	  0.50697	  0.05648	  0.40783	 -0.03761	  0.65885	703.65997	 21.50	
 17.014	-139.343	  0.55664	 -0.00610	  0.48392	  0.03253	  0.43773	 -0.03862	  0.65994	703.83002	 21.50	
 17.007	-133.546	  0.55936	  0.00904	  0.46047	  0.01222	  0.46619	 -0.04020	  0.66384	703.70001	 21.50	
 17.001	-127.699	  0.55314	  0.03072	  0.42631	 -0.00383	  0.48719	 -0.03949	  0.65726	703.67999	 21.50	
 17.006	-121.937	  0.55482	  0.05069	  0.39832	 -0.01900	  0.50964	 -0.04060	  0.65905	703.82001	 21.50	
 17.002	-116.134	  0.55590	  0.07440	  0.36706	 -0.03071	  0.52855	 -0.03717	  0.66011	703.78998	 21.50	
 17.001	-110.310	  0.55494	  0.10034	  0.33228	 -0.04112	  0.54246	 -0.04177	  0.65810	703.69000	 21.50	
 16.988	-104.517	  0.55461	  0.12904	  0.29919	 -0.04767	  0.55275	 -0.04241	  0.65724	703.66998	 21.50	
 17.008	-98.662	  0.55369	  0.15871	  0.26286	 -0.05315	  0.55934	 -0.04508	  0.65709	703.73999	 21.50	
 16.996	-92.909	  0.55553	  0.18993	  0.23043	 -0.05598	  0.56393	 -0.03629	  0.65949	703.65002	 21.50	
 16.996	-87.091	  0.55600	  0.22188	  0.20008	 -0.05767	  0.56574	 -0.03920	  0.66005	703.65997	 21.50	
 17.012	-81.253	  0.55633	  0.25699	  0.16795	 -0.05500	  0.56281	 -0.04231	  0.65965	703.77002	 21.50	
 16.988	-75.483	  0.55696	  0.29080	  0.13826	 -0.04699	  0.55212	 -0.03757	  0.65813	703.83002	 21.50	
 17.001	-69.690	  0.56232	  0.32805	  0.10972	 -0.04271	  0.54606	 -0.03996	  0.66430	703.85999	 21.50	
 17.002	-63.866	  0.56158	  0.35990	  0.08687	 -0.03160	  0.53239	 -0.03405	  0.66273	703.79999	 21.50	
 17.006	-58.063	  0.55904	  0.39081	  0.06113	 -0.01959	  0.51147	 -0.03762	  0.65960	703.76001	 21.50	
 17.001	-52.301	  0.56308	  0.42311	  0.04093	 -0.00567	  0.49321	 -0.03208	  0.66192	703.90997	 21.50	
 17.007	-46.454	  0.56386	  0.45443	  0.02162	  0.01302	  0.46937	 -0.02686	  0.66288	703.84003	 21.50	
 17.014	-40.657	  0.56157	  0.47850	  0.00541	  0.03171	  0.44007	 -0.02737	  0.65829	703.73999	 21.50	
 16.988	-34.839	  0.56531	  0.50504	 -0.00772	  0.05442	  0.41506	 -0.02374	  0.66077	703.73999	 21.50	
 16.995	-29.081	  0.56110	  0.52172	 -0.01986	  0.07802	  0.38094	 -0.02289	  0.65644	703.73999	 21.50	
 16.990	-23.241	  0.56872	  0.54539	 -0.03078	  0.10511	  0.35314	 -0.02489	  0.66346	703.70001	 21.50	
 17.000	-17.404	  0.56418	  0.55451	 -0.03760	  0.13297	  0.31657	 -0.01756	  0.65669	703.70001	 21.50	
 17.009	-11.617	  0.56836	  0.56839	 -0.04298	  0.16214	  0.28754	 -0.01517	  0.65926	703.70001	 21.50	
 16.990	 -5.821	  0.57114	  0.57550	 -0.04170	  0.19608	  0.25726	 -0.01206	  0.65875	703.72998	 21.50	
 17.000	  0.000	  0.57092	  0.57846	 -0.04194	  0.22860	  0.22519	 -0.00951	  0.65958	703.62000	 21.50	
 16.990	  5.821	  0.57393	  0.57758	 -0.04077	  0.26373	  0.19436	 -0.00965	  0.66114	703.56000	 21.50	
 17.009	 11.617	  0.57285	  0.57244	 -0.03668	  0.29814	  0.16630	 -0.00598	  0.65782	703.65002	 21.50	
 17.000	 17.404	  0.57689	  0.56571	 -0.02873	  0.33316	  0.14061	 -0.00563	  0.66133	703.59003	 21.50	
 16.990	 23.241	  0.57551	  0.55071	 -0.01847	  0.36605	  0.11425	 -0.00407	  0.65799	703.56000	 21.50	
 16.995	 29.081	  0.57692	  0.53464	 -0.00650	  0.40041	  0.08980	 -0.00125	  0.65771	703.65002	 21.50	
 16.988	 34.839	  0.58108	  0.51818	  0.00755	  0.43416	  0.06867	  0.00251	  0.66113	703.71997	 21.50	
 17.014	 40.657	  0.57703	  0.49133	  0.02220	  0.46019	  0.04858	  0.00208	  0.65473	703.65997	 21.50	
 17.007	 46.454	  0.58306	  0.47075	  0.04171	  0.49190	  0.03185	  0.00198	  0.66217	703.63000	 21.50	
 17.001	 52.301	  0.57910	  0.43900	  0.06188	  0.51407	  0.01695	  0.00295	  0.65730	703.54999	 21.50	
 17.006	 58.063	  0.58506	  0.41326	  0.08381	  0.54104	  0.00384	  0.00583	  0.66272	703.69000	 21.50	
 17.002	 63.866	  0.58083	  0.37917	  0.11022	  0.55652	 -0.00578	  0.00896	  0.65723	703.65997	 21.50	
 17.001	 69.690	  0.58824	  0.35076	  0.13660	  0.57926	 -0.01565	  0.00636	  0.66515	703.70001	 21.50	
 16.988	 75.483	  0.58529	  0.31658	  0.16605	  0.58722	 -0.01930	  0.00711	  0.66208	703.65002	 21.50	
 17.012	 81.253	  0.58406	  0.28270	  0.19325	  0.59404	 -0.02584	  0.00481	  0.66091	703.71997	 21.50	
 16.996	 87.091	  0.58073	  0.24859	  0.22474	  0.59452	 -0.02532	  0.00391	  0.65701	703.54999	 21.50	
 16.996	 92.909	  0.58208	  0.21684	  0.25637	  0.59782	 -0.02647	  0.00419	  0.66027	703.62000	 21.50	
 17.008	 98.662	  0.58399	  0.18568	  0.28966	  0.59420	 -0.02473	  0.00443	  0.66137	703.67999	 21.50	
 16.988	104.517	  0.58607	  0.15694	  0.32439	  0.58976	 -0.02138	  0.00185	  0.66531	703.67999	 21.50	
 17.001	110.310	  0.57607	  0.12654	  0.35234	  0.56940	 -0.01446	 -0.00084	  0.65508	703.65997	 21.50	
 17.002	116.134	  0.57438	  0.09956	  0.38447	  0.55489	 -0.00763	 -0.00171	  0.65565	703.65002	 21.50	
 17.006	121.937	  0.58308	  0.07465	  0.42194	  0.54372	  0.00334	 -0.00518	  0.66623	703.67999	 21.50	
 17.001	127.699	  0.57903	  0.05271	  0.44862	  0.51876	  0.01625	 -0.00779	  0.66203	703.79999	 21.50	
 17.007	133.546	  0.57272	  0.03238	  0.47323	  0.49018	  0.03145	 -0.00820	  0.65765	703.71997	 21.50	
 17.014	139.343	  0.57331	  0.01337	  0.49943	  0.46354	  0.04796	 -0.00971	  0.65932	703.78003	 21.50	
 16.988	145.161	  0.57000	 -0.00259	  0.51885	  0.43135	  0.06648	 -0.01347	  0.65611	703.82001	 21.50	
 16.995	150.919	  0.56888	 -0.01469	  0.53712	  0.40007	  0.08964	 -0.01495	  0.65598	703.69000	 21.50	
 16.990	156.759	  0.57081	 -0.02685	  0.55558	  0.36848	  0.11324	 -0.01538	  0.65894	703.76001	 21.50	
 17.000	162.596	  0.56754	 -0.03510	  0.56538	  0.33340	  0.13836	 -0.01583	  0.65695	703.83002	 21.50	
 17.009	168.383	  0.57011	 -0.04286	  0.57721	  0.30074	  0.16706	 -0.01957	  0.66139	703.78003	 21.50	
 16.990	174.179	  0.56443	 -0.04724	  0.57840	  0.26425	  0.19460	 -0.02126	  0.65559	703.70001	 21.50	
 18.709	174.675	  0.54391	 -0.08399	  0.59763	  0.24758	  0.17933	 -0.03231	  0.65766	703.73999	 21.50	
 18.703	169.441	  0.54571	 -0.07972	  0.59493	  0.28293	  0.15031	 -0.03070	  0.65728	703.71002	 21.50	
 18.691	164.085	  0.54642	 -0.07333	  0.58650	  0.31776	  0.12205	 -0.02856	  0.65918	703.81000	 21.50	
 18.706	158.818	  0.54681	 -0.06478	  0.57404	  0.35042	  0.09736	 -0.02667	  0.65689	703.67999	 21.50	
 18.695	153.537	  0.55069	 -0.05411	  0.56224	  0.38528	  0.07479	 -0.02339	  0.66010	703.50000	 21.50	
 18.704	148.255	  0.55233	 -0.04342	  0.54628	  0.41753	  0.05131	 -0.02133	  0.66036	703.65997	 21.50	
 18.698	142.952	  0.54812	 -0.02717	  0.52040	  0.44475	  0.03215	 -0.01987	  0.65385	703.59998	 21.50	
 18.699	137.625	  0.55252	 -0.01170	  0.50020	  0.47735	  0.01435	 -0.01790	  0.65723	703.59003	 21.50	
 18.705	132.343	  0.55455	  0.00659	  0.47468	  0.50514	 -0.00262	 -0.01648	  0.65890	703.71002	 21.50	
 18.713	127.067	  0.55232	  0.02688	  0.44397	  0.52784	 -0.01720	 -0.01464	  0.65478	703.78998	 21.50	
 18.700	121.794	  0.55207	  0.04924	  0.41363	  0.54840	 -0.02728	 -0.01256	  0.65388	703.78998	 21.50	
 18.698	116.504	  0.56229	  0.07279	  0.38931	  0.57568	 -0.03892	 -0.00983	  0.66355	703.71997	 21.50	
 18.707	111.165	  0.56139	  0.09884	  0.35529	  0.58927	 -0.04765	 -0.01024	  0.66156	703.64001	 21.50	
 18.690	105.863	  0.55583	  0.12594	  0.32012	  0.59502	 -0.05186	 -0.00843	  0.65399	703.71997	 21.50	
 18.696	100.583	  0.55880	  0.15560	  0.28901	  0.60618	 -0.05590	 -0.00581	  0.65669	703.71997	 21.50	
 18.700	 95.309	  0.56212	  0.18641	  0.25793	  0.61400	 -0.05854	 -0.00371	  0.65925	703.73999	 21.50	
 18.700	 90.000	  0.56136	  0.21724	  0.22495	  0.61573	 -0.05948	 -0.00499	  0.65861	703.71997	 21.50	
 18.700	 84.691	  0.56114	  0.25050	  0.19471	  0.61342	 -0.05829	 -0.00445	  0.65915	703.56000	 21.50	
 18.696	 79.417	  0.56491	  0.28360	  0.16504	  0.61108	 -0.05706	 -0.00271	  0.66190	703.67999	 21.50	
 18.690	 74.137	  0.56435	  0.31710	  0.13578	  0.60242	 -0.05273	 -0.00374	  0.66214	703.65997	 21.50	
 18.707	 68.835	  0.56068	  0.34719	  0.10839	  0.58575	 -0.04483	 -0.00144	  0.65706	703.60999	 21.50	
 18.698	 63.496	  0.56198	  0.38155	  0.08080	  0.57122	 -0.03807	 -0.00296	  0.65985	703.63000	 21.50	
 18.700	 58.206	  0.56407	  0.41498	  0.05771	  0.55486	 -0.02793	 -0.00383	  0.66212	703.69000	 21.50	
 18.713	 52.933	  0.55935	  0.44088	  0.03499	  0.52884	 -0.01653	 -0.00851	  0.65744	703.57001	 21.50	
 18.705	 47.657	  0.56179	  0.47112	  0.01628	  0.50652	 -0.00126	 -0.00757	  0.65997	703.65997	 21.50	
 18.699	 42.375	  0.55812	  0.49492	 -0.00196	  0.47609	  0.01466	 -0.00848	  0.65620	703.71002	 21.50	
 18.698	 37.048	  0.55626	  0.51779	 -0.01788	  0.44552	  0.03388	 -0.00834	  0.65640	703.63000	 21.50	
 18.704	 31.745	  0.56011	  0.54267	 -0.03285	  0.41715	  0.05287	 -0.00863	  0.66067	703.70001	 21.50	
 18.695	 26.463	  0.55372	  0.55602	 -0.04478	  0.38146	  0.07517	 -0.01169	  0.65555	703.63000	 21.50	
 18.706	 21.182	  0.55372	  0.57119	 -0.05533	  0.34866	  0.09975	 -0.01615	  0.65708	703.67999	 21.50	
 18.691	 15.915	  0.55276	  0.58265	 -0.06370	  0.31475	  0.12518	 -0.01827	  0.65712	703.67999	 21.50	
 18.703	 10.559	  0.55223	  0.59010	 -0.06871	  0.28029	  0.15356	 -0.01733	  0.65606	703.71997	 21.50	
 18.709	  5.325	  0.55396	  0.59713	 -0.07407	  0.24732	  0.18321	 -0.01945	  0.66081	703.75000	 21.50	
 18.700	  0.000	  0.54990	  0.59467	 -0.07572	  0.21375	  0.21171	 -0.02380	  0.65711	703.69000	 21.50	
 18.709	 -5.325	  0.54981	  0.59361	 -0.07673	  0.18104	  0.24218	 -0.02638	  0.66060	703.63000	 21.50	
 18.703	-10.559	  0.54976	  0.58714	 -0.07267	  0.14984	  0.27542	 -0.03023	  0.66068	703.59998	 21.50	
 18.691	-15.915	  0.54580	  0.57333	 -0.06784	  0.12002	  0.30507	 -0.03312	  0.65554	703.59003	 21.50	
 18.706	-21.182	  0.54491	  0.56183	 -0.06408	  0.09129	  0.33694	 -0.03457	  0.65729	703.71002	 21.50	
 18.695	-26.463	  0.53959	  0.54075	 -0.05495	  0.06447	  0.36737	 -0.03720	  0.65285	703.65002	 21.50	
 18.704	-31.745	  0.54258	  0.52601	 -0.04589	  0.03895	  0.40027	 -0.03946	  0.65842	703.69000	 21.50	
 18.698	-37.048	  0.54092	  0.50312	 -0.03437	  0.01628	  0.42944	 -0.04184	  0.65774	703.70001	 21.50	
 18.699	-42.375	  0.54187	  0.48040	 -0.02059	 -0.00476	  0.45912	 -0.04203	  0.66132	703.73999	 21.50	
 18.705	-47.657	  0.53689	  0.44942	 -0.00406	 -0.02234	  0.48077	 -0.04409	  0.65593	703.65002	 21.50	
 18.713	-52.933	  0.53875	  0.42164	  0.01409	 -0.03899	  0.50602	 -0.04466	  0.65832	703.70001	 21.50	
 18.700	-58.206	  0.53545	  0.38855	  0.03673	 -0.05113	  0.52419	 -0.04538	  0.65563	703.65997	 21.50	
 18.698	-63.496	  0.53696	  0.35714	  0.05876	 -0.06353	  0.54473	 -0.04589	  0.65858	703.64001	 21.50	
 18.707	-68.835	  0.53472	  0.32286	  0.08214	 -0.07331	  0.55784	 -0.04609	  0.65714	703.60999	 21.50	
 18.690	-74.137	  0.53634	  0.29100	  0.11020	 -0.07982	  0.57111	 -0.04903	  0.65860	703.62000	 21.50	
 18.696	-79.417	  0.53373	  0.25788	  0.13746	 -0.08480	  0.57675	 -0.04959	  0.65796	703.57001	 21.50	
 18.700	-84.691	  0.53647	  0.22525	  0.16758	 -0.08818	  0.58417	 -0.05249	  0.66084	703.52002	 21.50	
 18.700	-90.000	  0.53480	  0.19293	  0.20051	 -0.08789	  0.58477	 -0.05115	  0.65928	703.56000	 21.50	
 18.700	-95.309	  0.53671	  0.16188	  0.23330	 -0.08613	  0.58428	 -0.05262	  0.66007	703.63000	 21.50	
 18.696	-100.583	  0.54106	  0.13351	  0.26945	 -0.08410	  0.58602	 -0.04982	  0.66589	703.65997	 21.50	
 18.690	-105.863	  0.53736	  0.10312	  0.30116	 -0.07869	  0.57417	 -0.04681	  0.66292	703.56000	 21.50	
 18.707	-111.165	  0.53263	  0.07352	  0.33191	 -0.07214	  0.55641	 -0.04850	  0.65655	703.58002	 21.50	
 18.698	-116.504	  0.53409	  0.04835	  0.36581	 -0.06153	  0.54175	 -0.04714	  0.65929	703.57001	 21.50	
 18.700	-121.794	  0.53827	  0.02722	  0.40030	 -0.04726	  0.52514	 -0.05107	  0.66207	703.53998	 21.50	
 18.713	-127.067	  0.53675	  0.00574	  0.42910	 -0.03437	  0.50248	 -0.05185	  0.65999	703.50000	 21.50	
 18.705	-132.343	  0.53427	 -0.01256	  0.45737	 -0.01740	  0.47645	 -0.04687	  0.65663	703.60999	 21.50	
 18.699	-137.625	  0.53742	 -0.03023	  0.48497	 -0.00140	  0.45312	 -0.04929	  0.65987	703.65997	 21.50	
 18.698	-142.952	  0.53474	 -0.04433	  0.50680	  0.02099	  0.42227	 -0.05249	  0.65524	703.72998	 21.50	
 18.704	-148.255	  0.53237	 -0.05505	  0.52498	  0.04311	  0.39019	 -0.04898	  0.65077	703.63000	 21.50	
 18.695	-153.537	  0.53587	 -0.06693	  0.54846	  0.06611	  0.36351	 -0.04750	  0.65576	703.60999	 21.50	
 18.706	-158.818	  0.53938	 -0.07441	  0.56657	  0.09202	  0.33458	 -0.04363	  0.65962	703.63000	 21.50	
 18.691	-164.085	  0.54147	 -0.07966	  0.57963	  0.12251	  0.30239	 -0.04215	  0.65900	703.56000	 21.50	
 18.703	-169.441	  0.54023	 -0.08392	  0.58862	  0.15117	  0.27062	 -0.03508	  0.65694	703.59003	 21.50	
 18.709	-174.675	  0.53998	 -0.08521	  0.59332	  0.18062	  0.23859	 -0.03321	  0.65516	703.58002	 21.50	
 18.700	180.000	  0.54745	 -0.08733	  0.60416	  0.21630	  0.20916	 -0.03066	  0.66440	703.63000	 21.50	
 20.400	180.000	  0.52102	 -0.12333	  0.61659	  0.19678	  0.19062	 -0.03858	  0.66141	703.64001	 21.50	
 20.401	-175.153	  0.51545	 -0.12105	  0.60678	  0.16340	  0.21964	 -0.04469	  0.65489	703.66998	 21.50	
 20.407	-170.264	  0.51690	 -0.12037	  0.60549	  0.13268	  0.25254	 -0.04660	  0.65949	703.70001	 21.50	
 20.410	-165.423	  0.51581	 -0.11669	  0.59586	  0.10334	  0.28372	 -0.04812	  0.65758	703.65002	 21.50	
 20.392	-160.496	  0.51612	 -0.11210	  0.58445	  0.07457	  0.31618	 -0.04760	  0.65990	703.58002	 21.50	
 20.401	-155.705	  0.51306	 -0.10465	  0.56776	  0.04754	  0.34641	 -0.04861	  0.65743	703.63000	 21.50	
 20.405	-150.835	  0.51175	 -0.09513	  0.54967	  0.02456	  0.37619	 -0.05118	  0.65690	703.54999	 21.50	
 20.397	-145.903	  0.51407	 -0.08611	  0.53062	  0.00025	  0.40844	 -0.05309	  0.65995	703.64001	 21.50	
 20.392	-141.062	  0.51182	 -0.07227	  0.50723	 -0.02079	  0.43795	 -0.05146	  0.65857	703.64001	 21.50	
 20.396	-136.227	  0.51407	 -0.05854	  0.48366	 -0.03947	  0.46615	 -0.05166	  0.66144	703.63000	 21.50	
 20.408	-131.372	  0.51013	 -0.04135	  0.45369	 -0.05538	  0.48861	 -0.05255	  0.65827	703.65002	 21.50	
 20.410	-126.511	  0.50955	 -0.02428	  0.42446	 -0.07230	  0.51239	 -0.05407	  0.65858	703.60999	 21.60	
 20.400	-121.604	  0.50974	 -0.00248	  0.39390	 -0.08416	  0.53379	 -0.05071	  0.65932	703.62000	 21.60	
 20.403	-116.741	  0.50852	  0.01955	  0.36075	 -0.09603	  0.55168	 -0.05032	  0.65820	703.57001	 21.60	
 20.413	-111.900	  0.50678	  0.04475	  0.32762	 -0.10290	  0.56463	 -0.05116	  0.65459	703.60999	 21.50	
 20.398	-107.004	  0.50958	  0.07204	  0.29591	 -0.11149	  0.58077	 -0.05078	  0.66011	703.53998	 21.60	
 20.394	-102.132	  0.50937	  0.09908	  0.26288	 -0.11714	  0.58961	 -0.05285	  0.65932	703.65002	 21.50	
 20.403	-97.332	  0.51129	  0.12910	  0.23131	 -0.11981	  0.59768	 -0.05157	  0.66126	703.50000	 21.60	
 20.392	-92.440	  0.50880	  0.15924	  0.19761	 -0.12069	  0.59625	 -0.05376	  0.65599	703.69000	 21.60	
 20.392	-87.560	  0.51293	  0.19252	  0.16819	 -0.12142	  0.60107	 -0.05262	  0.66039	703.60999	 21.50	
 20.403	-82.668	  0.50821	  0.22239	  0.13639	 -0.11962	  0.59299	 -0.05259	  0.65513	703.62000	 21.60	
 20.394	-77.868	  0.51307	  0.25783	  0.10774	 -0.11864	  0.59264	 -0.05248	  0.66110	703.72998	 21.60	
 20.398	-72.996	  0.51266	  0.29013	  0.07900	 -0.11460	  0.58381	 -0.05138	  0.66099	703.65997	 21.60	
 20.413	-68.100	  0.50933	  0.32115	  0.05331	 -0.10514	  0.56677	 -0.05038	  0.65525	703.63000	 21.60	
 20.403	-63.259	  0.51276	  0.35442	  0.03217	 -0.09617	  0.55483	 -0.05595	  0.65714	703.71002	 21.60	
 20.400	-58.396	  0.51365	  0.38711	  0.00848	 -0.08601	  0.53795	 -0.05391	  0.65873	703.70001	 21.60	
 20.410	-53.489	  0.51555	  0.41854	 -0.01253	 -0.07395	  0.51798	 -0.05279	  0.65997	703.71002	 21.60	
 20.408	-48.628	  0.51259	  0.44628	 -0.02953	 -0.05729	  0.49096	 -0.05355	  0.65380	703.72998	 21.60	
 20.396	-43.773	  0.51395	  0.47592	 -0.04856	 -0.04290	  0.46783	 -0.05014	  0.65576	703.65997	 21.60	
 20.392	-38.938	  0.51501	  0.49915	 -0.06077	 -0.02271	  0.43976	 -0.05180	  0.65477	703.69000	 21.60	
 20.397	-34.097	  0.51698	  0.52518	 -0.07503	 -0.00248	  0.41215	 -0.05027	  0.65750	703.71002	 21.60	
 20.405	-29.165	  0.51716	  0.54554	 -0.08545	  0.02164	  0.38075	 -0.04716	  0.65594	703.65997	 21.60	
 20.401	-24.295	  0.52140	  0.56565	 -0.09422	  0.04578	  0.35168	 -0.04472	  0.65801	703.65002	 21.60	
 20.392	-19.504	  0.52254	  0.58193	 -0.10191	  0.07093	  0.32317	 -0.04153	  0.65885	703.66998	 21.60	
 20.410	-14.577	  0.52406	  0.59488	 -0.10654	  0.10081	  0.28995	 -0.03698	  0.65934	703.72998	 21.60	
 20.407	 -9.736	  0.52626	  0.60415	 -0.11052	  0.13021	  0.25816	 -0.03624	  0.66103	703.63000	 21.60	
 20.401	 -4.847	  0.52539	  0.60999	 -0.11460	  0.15981	  0.22686	 -0.03605	  0.65903	703.66998	 21.60	
 20.400	  0.000	  0.52561	  0.61047	 -0.11198	  0.19464	  0.19370	 -0.03516	  0.65760	703.58002	 21.60	
 20.401	  4.847	  0.52944	  0.61204	 -0.10953	  0.22867	  0.16524	 -0.03529	  0.66014	703.60999	 21.60	
 20.407	  9.736	  0.52961	  0.60723	 -0.10652	  0.26236	  0.13463	 -0.02915	  0.65860	703.69000	 21.60	
 20.410	 14.577	  0.52762	  0.59805	 -0.10138	  0.29500	  0.10682	 -0.02500	  0.65667	703.60999	 21.60	
 20.392	 19.504	  0.53238	  0.59146	 -0.09414	  0.33055	  0.08228	 -0.02370	  0.65875	703.58002	 21.60	
 20.401	 24.295	  0.53469	  0.57927	 -0.08531	  0.36461	  0.05856	 -0.01949	  0.66179	703.59003	 21.60	
 20.405	 29.165	  0.53306	  0.55933	 -0.07234	  0.39740	  0.03499	 -0.01536	  0.65683	703.65997	 21.60	
 20.397	 34.097	  0.53777	  0.54299	 -0.05850	  0.42964	  0.01771	 -0.01730	  0.65989	703.71002	 21.60	
 20.392	 38.938	  0.53598	  0.51906	 -0.04724	  0.46049	 -0.00544	 -0.01437	  0.65759	703.72998	 21.60	
 20.396	 43.773	  0.53694	  0.49716	 -0.03369	  0.49244	 -0.02713	 -0.01851	  0.66053	703.56000	 21.60	
 20.408	 48.628	  0.53231	  0.46584	 -0.01605	  0.51503	 -0.03992	 -0.01744	  0.65455	703.60999	 21.60	
 20.410	 53.489	  0.53482	  0.43993	  0.00265	  0.54050	 -0.05425	 -0.01539	  0.65716	703.57001	 21.60	
 20.400	 58.396	  0.53803	  0.41013	  0.02702	  0.56403	 -0.06464	 -0.01369	  0.65980	703.45001	 21.60	
 20.403	 63.259	  0.53508	  0.37738	  0.05095	  0.57911	 -0.07209	 -0.01154	  0.65616	703.53998	 21.60	
 20.413	 68.100	  0.53964	  0.34736	  0.07648	  0.60063	 -0.08149	 -0.01026	  0.66102	703.45001	 21.60	
 20.398	 72.996	  0.53714	  0.31315	  0.10195	  0.61136	 -0.08848	 -0.01178	  0.65835	703.46002	 21.60	
 20.394	 77.868	  0.53770	  0.28077	  0.12914	  0.62184	 -0.09381	 -0.01040	  0.65920	703.54999	 21.60	
 20.403	 82.668	  0.53778	  0.24763	  0.15797	  0.62894	 -0.09858	 -0.01481	  0.65962	703.48999	 21.60	
 20.392	 87.560	  0.53420	  0.21342	  0.18898	  0.62756	 -0.09781	 -0.01534	  0.65536	703.50000	 21.60	
 20.392	 92.440	  0.53726	  0.18238	  0.22123	  0.63134	 -0.09818	 -0.01595	  0.65949	703.59998	 21.60	
 20.403	 97.332	  0.53567	  0.15120	  0.25094	  0.62812	 -0.09957	 -0.01831	  0.65970	703.50000	 21.60	
 20.394	102.132	  0.53507	  0.12246	  0.28543	  0.61973	 -0.09326	 -0.01714	  0.65849	703.56000	 21.60	
 20.398	107.004	  0.53452	  0.09403	  0.31777	  0.61143	 -0.08873	 -0.01813	  0.65847	703.46002	 21.60	
 20.413	111.900	  0.53235	  0.06660	  0.35018	  0.59738	 -0.08273	 -0.01814	  0.65795	703.51001	 21.60	
 20.403	116.741	  0.53344	  0.04125	  0.38297	  0.58165	 -0.07439	 -0.02087	  0.65957	703.46997	 21.60	
 20.400	121.604	  0.53219	  0.01754	  0.41390	  0.56301	 -0.06420	 -0.02467	  0.65948	703.54999	 21.60	
 20.410	126.511	  0.52816	 -0.00203	  0.44214	  0.53670	 -0.04971	 -0.02640	  0.65429	703.65997	 21.60	
 20.408	131.372	  0.53235	 -0.02400	  0.47418	  0.51803	 -0.03958	 -0.02519	  0.66166	703.53003	 21.60	
 20.396	136.227	  0.53178	 -0.04314	  0.50147	  0.49248	 -0.02641	 -0.02757	  0.66374	703.54999	 21.60	
 20.392	141.062	  0.52812	 -0.05798	  0.52324	  0.46130	 -0.00845	 -0.02689	  0.65893	703.58002	 21.60	
 20.397	145.903	  0.52812	 -0.07287	  0.54637	  0.43156	  0.01025	 -0.03039	  0.65980	703.47998	 21.60	
 20.405	150.835	  0.52367	 -0.08539	  0.56330	  0.39835	  0.03051	 -0.03117	  0.65735	703.44000	 21.60	
 20.401	155.705	  0.52309	 -0.09475	  0.57897	  0.36426	  0.05494	 -0.03531	  0.65642	703.46997	 21.60	
 20.392	160.496	  0.52237	 -0.10339	  0.59187	  0.33167	  0.07839	 -0.03527	  0.65753	703.58002	 21.70	
 20.410	165.423	  0.52030	 -0.10991	  0.60105	  0.29639	  0.10343	 -0.03905	  0.65611	703.58002	 21.70	
 20.407	170.264	  0.52085	 -0.11678	  0.60973	  0.26331	  0.13090	 -0.04035	  0.65841	703.54999	 21.70	
 20.401	175.153	  0.51601	 -0.11977	  0.60872	  0.22825	  0.15858	 -0.04232	  0.65335	703.52002	 21.70	
  0.141	 45.000	  0.65210	  0.29657	  0.29963	  0.30473	  0.30111	  0.04789	  0.65281	703.59003	 21.70	
  4.001	128.691	  0.65890	  0.24693	  0.35225	  0.36775	  0.24369	  0.04686	  0.66075	703.50000	 21.70	
  4.002	 76.995	  0.65523	  0.30834	  0.28406	  0.38163	  0.23010	  0.05059	  0.65540	703.48999	 21.70	
  4.002	 25.892	  0.65266	  0.36169	  0.23652	  0.33472	  0.26529	  0.04922	  0.65303	703.52002	 21.70	
  4.002	-25.892	  0.65361	  0.36188	  0.23550	  0.26929	  0.32954	  0.04208	  0.65837	703.48999	 21.70	
  4.002	-76.995	  0.65081	  0.30503	  0.28080	  0.23082	  0.37108	  0.03478	  0.65662	703.59003	 21.70	
  4.001	-128.691	  0.65714	  0.24581	  0.34899	  0.24595	  0.35905	  0.03296	  0.66124	703.46997	 21.70	
  4.000	180.000	  0.65556	  0.22062	  0.38119	  0.30304	  0.29849	  0.03909	  0.65831	703.53003	 21.70	
  8.000	180.000	  0.64242	  0.13480	  0.45431	  0.29001	  0.28507	  0.02305	  0.65912	703.46002	 21.70	
  7.991	-152.370	  0.63482	  0.14792	  0.42768	  0.21603	  0.35445	  0.01850	  0.65451	703.59003	 21.70	
  7.997	-124.550	  0.63810	  0.19076	  0.37457	  0.16591	  0.41513	  0.01383	  0.65868	703.53003	 21.70	
  8.006	-96.837	  0.64107	  0.25607	  0.30208	  0.14368	  0.44522	  0.01342	  0.66202	703.52002	 21.70	
  7.988	-69.228	  0.63692	  0.32999	  0.22892	  0.15027	  0.43318	  0.01679	  0.65689	703.51001	 21.70	
  7.997	-41.563	  0.64192	  0.39982	  0.17525	  0.18814	  0.38925	  0.02122	  0.65937	703.48999	 21.70	
  8.008	-13.821	  0.64035	  0.43846	  0.14597	  0.24953	  0.31941	  0.02947	  0.65661	703.48999	 21.70	
  8.008	 13.821	  0.64676	  0.44342	  0.14847	  0.32856	  0.24894	  0.03548	  0.66069	703.50000	 21.70	
  7.997	 41.563	  0.64365	  0.40270	  0.17992	  0.39876	  0.18916	  0.04229	  0.65453	703.47998	 21.70	
  7.988	 69.228	  0.64851	  0.33892	  0.23719	  0.44885	  0.15566	  0.04263	  0.65910	703.58002	 21.70	
  8.006	 96.837	  0.64476	  0.26238	  0.30778	  0.45722	  0.14825	  0.04177	  0.65521	703.57001	 21.70	
  7.997	124.550	  0.64902	  0.19737	  0.38417	  0.43063	  0.16995	  0.03720	  0.66142	703.65997	 21.70	
  7.991	152.370	  0.64210	  0.15171	  0.43389	  0.36593	  0.21757	  0.03148	  0.65686	703.56000	 21.70	
 12.009	161.059	  0.61636	  0.06108	  0.50424	  0.34741	  0.19267	  0.01175	  0.65780	703.54999	 21.70	
 12.013	142.081	  0.61795	  0.09204	  0.46396	  0.42227	  0.13478	  0.01550	  0.65694	703.65002	 21.70	
 12.006	123.113	  0.62156	  0.14191	  0.40373	  0.48232	  0.09396	  0.01981	  0.65775	703.53998	 21.70	
 12.007	104.200	  0.62137	  0.20619	  0.32941	  0.51673	  0.07249	  0.02730	  0.65542	703.64001	 21.70	
 11.989	 85.301	  0.62633	  0.28180	  0.25399	  0.52653	  0.06694	  0.02781	  0.65872	703.56000	 21.70	
 12.013	 66.294	  0.62378	  0.35927	  0.18301	  0.50257	  0.08014	  0.03036	  0.65601	703.46002	 21.70	
 12.012	 47.388	  0.62349	  0.42856	  0.12625	  0.45528	  0.11280	  0.02829	  0.65685	703.56000	 21.70	
 11.990	 28.440	  0.62067	  0.47955	  0.08436	  0.38407	  0.16253	  0.02667	  0.65517	703.54999	 21.70	
 11.991	  9.464	  0.61363	  0.50298	  0.06232	  0.30281	  0.22557	  0.01855	  0.65094	703.53003	 21.70	
 11.991	 -9.464	  0.62240	  0.50982	  0.06063	  0.22781	  0.30438	  0.01151	  0.66363	703.54999	 21.70	
 11.990	-28.440	  0.60985	  0.47063	  0.07791	  0.15722	  0.37225	  0.00374	  0.65256	703.56000	 21.70	
 12.012	-47.388	  0.61147	  0.41889	  0.11436	  0.10191	  0.43987	 -0.00726	  0.65716	703.59003	 21.70	
 12.013	-66.294	  0.61256	  0.34762	  0.16908	  0.06764	  0.48717	 -0.01124	  0.65972	703.51001	 21.70	
 11.989	-85.301	  0.61279	  0.26936	  0.24018	  0.05254	  0.50849	 -0.01309	  0.66152	703.53003	 21.70	
 12.007	-104.200	  0.61056	  0.19357	  0.31770	  0.05908	  0.50004	 -0.01317	  0.65963	703.53998	 21.70	
 12.006	-123.113	  0.60970	  0.13066	  0.39306	  0.08404	  0.46437	 -0.00962	  0.65926	703.52002	 21.70	
 12.013	-142.081	  0.60985	  0.08405	  0.45595	  0.12876	  0.40714	 -0.00747	  0.65750	703.47998	 21.70	
 12.009	-161.059	  0.61154	  0.05648	  0.49872	  0.19174	  0.33718	 -0.00259	  0.65725	703.54999	 21.70	
 16.000	180.000	  0.57429	 -0.02950	  0.56746	  0.23933	  0.23347	 -0.01669	  0.65555	703.53003	 21.70	
 15.990	-165.604	  0.57441	 -0.02812	  0.55652	  0.16359	  0.30696	 -0.02410	  0.65935	703.51001	 21.70	
 16.002	-151.165	  0.57042	 -0.00892	  0.51988	  0.09829	  0.38076	 -0.02748	  0.65743	703.51001	 21.70	
 16.002	-136.836	  0.56659	  0.02294	  0.46471	  0.04527	  0.44540	 -0.03092	  0.65498	703.46002	 21.70	
 15.995	-122.439	  0.56715	  0.06804	  0.39993	  0.00579	  0.50229	 -0.03357	  0.65731	703.54999	 21.70	
 15.993	-107.966	  0.57128	  0.12829	  0.32502	 -0.02181	  0.54383	 -0.03424	  0.66204	703.62000	 21.70	
 16.005	-93.629	  0.57031	  0.19848	  0.24689	 -0.03333	  0.56035	 -0.03792	  0.66097	703.65002	 21.70	
 15.992	-79.234	  0.57285	  0.27696	  0.17419	 -0.02754	  0.55401	 -0.03663	  0.66052	703.46997	 21.70	
 16.009	-64.774	  0.56914	  0.35223	  0.10769	 -0.01165	  0.52440	 -0.03405	  0.65648	703.48999	 21.70	
 15.997	-50.364	  0.57318	  0.42761	  0.05453	  0.02186	  0.47813	 -0.03166	  0.65847	703.54999	 21.70	
 15.997	-36.045	  0.57845	  0.49366	  0.01320	  0.06821	  0.41867	 -0.02666	  0.66095	703.63000	 21.70	
 16.000	-21.597	  0.57950	  0.53878	 -0.01220	  0.12824	  0.34659	 -0.01965	  0.66079	703.63000	 21.70	
 16.003	 -7.169	  0.57806	  0.55842	 -0.02222	  0.19902	  0.26975	 -0.01233	  0.65525	703.59003	 21.70	
 16.003	  7.169	  0.58056	  0.55942	 -0.01686	  0.27676	  0.19787	 -0.00695	  0.65415	703.71002	 21.70	
 16.000	 21.597	  0.58709	  0.54345	 -0.00222	  0.35924	  0.13321	  0.00076	  0.66006	703.59998	 21.70	
 15.997	 36.045	  0.58836	  0.50138	  0.02883	  0.43512	  0.07997	  0.00703	  0.65787	703.58002	 21.70	
 15.997	 50.364	  0.58757	  0.44163	  0.07087	  0.49744	  0.03783	  0.00681	  0.65685	703.63000	 21.70	
 16.009	 64.774	  0.58647	  0.36904	  0.12558	  0.54438	  0.00924	  0.01003	  0.65408	703.60999	 21.70	
 15.992	 79.234	  0.58470	  0.29224	  0.19039	  0.57033	 -0.00553	  0.01058	  0.65346	703.64001	 21.70	
 16.005	 93.629	  0.58542	  0.21684	  0.26503	  0.57824	 -0.00843	  0.00590	  0.65438	703.59003	 21.70	
 15.993	107.966	  0.59045	  0.14939	  0.34232	  0.56717	 -0.00002	  0.00349	  0.66104	703.51001	 21.70	
 15.995	122.439	  0.58815	  0.08650	  0.41736	  0.52798	  0.02152	 -0.00043	  0.66088	703.54999	 21.70	
 16.002	136.836	  0.58175	  0.03920	  0.47904	  0.46756	  0.05869	 -0.00349	  0.65579	703.56000	 21.70	
 16.002	151.165	  0.58074	  0.00147	  0.52942	  0.39851	  0.10371	 -0.01048	  0.65749	703.48999	 21.70	
 15.990	165.604	  0.57899	 -0.02244	  0.56197	  0.32021	  0.16399	 -0.01535	  0.66009	703.57001	 21.70	
 20.003	168.362	  0.52299	 -0.10639	  0.60107	  0.27980	  0.12367	 -0.03568	  0.65448	703.52002	 21.70	
 20.008	156.764	  0.52791	 -0.08780	  0.57920	  0.35873	  0.06709	 -0.03513	  0.65718	703.60999	 21.70	
 20.000	145.147	  0.53189	 -0.06260	  0.53955	  0.43542	  0.01536	 -0.02526	  0.65862	703.53003	 21.70	
 19.995	133.545	  0.53188	 -0.02694	  0.47963	  0.50341	 -0.02945	 -0.02394	  0.65777	703.58002	 21.70	
 20.009	121.926	  0.53263	  0.02447	  0.41280	  0.55497	 -0.05410	 -0.01762	  0.65378	703.63000	 21.70	
 20.005	110.327	  0.53780	  0.08199	  0.34211	  0.59830	 -0.07550	 -0.01436	  0.65713	703.59998	 21.70	
 19.989	 98.733	  0.54036	  0.14617	  0.26624	  0.62093	 -0.08772	 -0.01234	  0.65848	703.65002	 21.70	
 19.999	 87.075	  0.54364	  0.22075	  0.19143	  0.62858	 -0.09143	 -0.01391	  0.66130	703.62000	 21.70	
 19.992	 75.457	  0.54380	  0.29744	  0.12317	  0.61430	 -0.08285	 -0.00896	  0.66045	703.54999	 21.70	
 20.009	 63.844	  0.54089	  0.37354	  0.06122	  0.57918	 -0.06519	 -0.00981	  0.65668	703.48999	 21.70	
 19.989	 52.269	  0.54370	  0.44664	  0.00892	  0.53428	 -0.04071	 -0.01276	  0.66103	703.46997	 21.70	
 19.999	 40.602	  0.54068	  0.50942	 -0.03451	  0.46975	 -0.00530	 -0.01520	  0.65848	703.40002	 21.70	
 20.004	 29.051	  0.54050	  0.56052	 -0.06767	  0.39856	  0.04101	 -0.01885	  0.66117	703.51001	 21.70	
 20.005	 17.433	  0.53648	  0.59209	 -0.08920	  0.31796	  0.09782	 -0.01922	  0.65859	703.59998	 21.70	
 20.006	  5.780	  0.53550	  0.61069	 -0.10319	  0.23889	  0.16313	 -0.02794	  0.66188	703.47998	 21.70	
 20.006	 -5.780	  0.53108	  0.60644	 -0.10574	  0.16043	  0.23506	 -0.03224	  0.65976	703.50000	 21.70	
 20.005	-17.433	  0.52857	  0.58575	 -0.09745	  0.09042	  0.30834	 -0.03733	  0.65910	703.57001	 21.70	
 20.004	-29.051	  0.52463	  0.54625	 -0.07854	  0.02935	  0.38191	 -0.04125	  0.65669	703.57001	 21.70	
 19.999	-40.602	  0.52341	  0.49497	 -0.05058	 -0.02136	  0.45121	 -0.04569	  0.65884	703.53003	 21.80	
 19.989	-52.269	  0.51771	  0.42662	 -0.00983	 -0.05929	  0.50727	 -0.04882	  0.65518	703.52002	 21.80	
 20.009	-63.844	  0.52021	  0.35506	  0.04120	 -0.08743	  0.55491	 -0.05016	  0.65787	703.53998	 21.70	
 19.992	-75.457	  0.51812	  0.27652	  0.10109	 -0.10478	  0.58308	 -0.04929	  0.65773	703.46997	 21.80	
 19.999	-87.075	  0.51916	  0.20003	  0.17072	 -0.11103	  0.59667	 -0.04894	  0.65887	703.56000	 21.80	
 19.989	-98.733	  0.51852	  0.12761	  0.24592	 -0.10786	  0.59275	 -0.04790	  0.65991	703.58002	 21.80	
 20.005	-110.327	  0.51890	  0.06122	  0.32310	 -0.09681	  0.57307	 -0.04960	  0.66164	703.50000	 21.70	
 20.009	-121.926	  0.51653	  0.00571	  0.39713	 -0.07235	  0.53159	 -0.04971	  0.65751	703.47998	 21.80	
 19.995	-133.545	  0.51760	 -0.04070	  0.46754	 -0.03873	  0.47812	 -0.04864	  0.65925	703.47998	 21.80	
 20.000	-145.147	  0.51590	 -0.07412	  0.52326	  0.00630	  0.41171	 -0.04747	  0.65652	703.53998	 21.80	
 20.008	-156.764	  0.52117	 -0.09764	  0.57106	  0.06159	  0.34211	 -0.04550	  0.65918	703.50000	 21.80	
 20.003	-168.362	  0.52561	 -0.11141	  0.60295	  0.12736	  0.26941	 -0.04379	  0.66210	703.46002	 21.80	
 20.000	180.000	  0.52315	 -0.11165	  0.60820	  0.20125	  0.19415	 -0.03958	  0.65689	703.46002	 21.80	
