FileType=PCF
NHL=14
Date=03/15/19	10:03:51
Facility=APL
Serial=16071-2
Customer=NASA
NP=6
Mach=0.080000
Calibration=1:1
CalPts=490
TstPts=95
PortNumbering=AP Standard
Units=Torr C m/s kg/m^3 deg mm 
Theta[deg]	Phi[deg]	P1[Torr]	P2[Torr]	P3[Torr]	P4[Torr]	P5[Torr]	P6[Torr]	Pt[Torr]	Ps[Abs,Torr]	Ts[C]	
  0.000	  0.000	  3.22576	  1.33710	  1.53060	  1.40552	  1.43292	  0.07558	  3.22199	704.20001	 22.10	
  1.691	128.401	  3.22367	  1.23343	  1.60477	  1.49787	  1.30973	  0.06902	  3.22179	703.62000	 22.10	
  1.692	 77.194	  3.22796	  1.35457	  1.49760	  1.53543	  1.29437	  0.07545	  3.22481	704.26001	 22.10	
  1.699	 26.182	  3.22902	  1.46298	  1.40072	  1.45435	  1.37411	  0.07857	  3.22413	703.70001	 22.10	
  1.699	-26.182	  3.22776	  1.45436	  1.39887	  1.34123	  1.48167	  0.07123	  3.22148	703.48999	 22.10	
  1.692	-77.194	  3.22667	  1.35781	  1.48332	  1.25887	  1.56100	  0.06638	  3.22488	703.39001	 22.00	
  1.691	-128.401	  3.22520	  1.23178	  1.60722	  1.27164	  1.53218	  0.06067	  3.22419	703.47998	 22.00	
  1.700	180.000	  3.22600	  1.17573	  1.66900	  1.38149	  1.41245	  0.06330	  3.22509	703.40997	 22.00	
  3.400	180.000	  3.21559	  0.99127	  1.83556	  1.35314	  1.39470	  0.04781	  3.22449	703.40002	 22.00	
  3.388	-152.325	  3.21800	  1.02659	  1.79562	  1.20771	  1.54932	  0.04411	  3.22676	703.52002	 22.00	
  3.397	-124.529	  3.21881	  1.12445	  1.68521	  1.10605	  1.67624	  0.04467	  3.22641	703.46997	 22.00	
  3.399	-96.763	  3.21682	  1.26181	  1.53726	  1.06545	  1.73555	  0.04665	  3.22108	703.46997	 22.00	
  3.394	-69.283	  3.22272	  1.41315	  1.39373	  1.09238	  1.71796	  0.05244	  3.22334	703.40997	 22.00	
  3.400	-41.398	  3.22372	  1.54843	  1.28193	  1.18005	  1.62249	  0.05980	  3.22273	703.40997	 22.00	
  3.401	-14.021	  3.22630	  1.62731	  1.22207	  1.31183	  1.48187	  0.06728	  3.22421	703.39001	 22.00	
  3.401	 14.021	  3.22843	  1.62494	  1.22785	  1.46252	  1.33677	  0.07258	  3.22533	703.38000	 22.00	
  3.400	 41.398	  3.22704	  1.54747	  1.28532	  1.59105	  1.21676	  0.07491	  3.22299	703.39001	 22.00	
  3.394	 69.283	  3.22372	  1.40921	  1.40551	  1.68267	  1.13472	  0.07263	  3.22096	703.40002	 22.00	
  3.399	 96.763	  3.21945	  1.25741	  1.54329	  1.69922	  1.10808	  0.06667	  3.22011	703.47998	 22.00	
  3.397	124.529	  3.21659	  1.11556	  1.68674	  1.63148	  1.15152	  0.05816	  3.22082	703.51001	 22.00	
  3.388	152.325	  3.21715	  1.02384	  1.79614	  1.50321	  1.25988	  0.05236	  3.22204	703.48999	 22.00	
  5.099	161.165	  3.19470	  0.82516	  1.96922	  1.48526	  1.22315	  0.03449	  3.22092	703.40002	 22.00	
  5.109	142.013	  3.19793	  0.89256	  1.88826	  1.64257	  1.08687	  0.03887	  3.22090	703.52002	 22.00	
  5.095	123.033	  3.20166	  1.00146	  1.76046	  1.76785	  0.98713	  0.04437	  3.22141	703.41998	 22.00	
  5.105	104.191	  3.20772	  1.14645	  1.60846	  1.84768	  0.93280	  0.05055	  3.22419	703.46002	 22.00	
  5.093	 85.207	  3.21259	  1.30772	  1.44783	  1.87048	  0.92398	  0.05523	  3.22358	703.38000	 22.00	
  5.104	 66.290	  3.21289	  1.46925	  1.29972	  1.83112	  0.96057	  0.06106	  3.22098	703.51001	 22.00	
  5.094	 47.331	  3.21652	  1.62058	  1.17302	  1.73767	  1.04477	  0.06627	  3.22259	703.34998	 22.00	
  5.089	 28.397	  3.21723	  1.73117	  1.08746	  1.60210	  1.16660	  0.06454	  3.22138	703.47998	 22.00	
  5.096	  9.576	  3.21646	  1.79084	  1.04003	  1.44554	  1.30840	  0.06150	  3.22027	703.46997	 22.00	
  5.096	 -9.576	  3.21756	  1.79482	  1.04223	  1.28623	  1.47298	  0.05865	  3.22342	703.53998	 22.00	
  5.089	-28.397	  3.21159	  1.73326	  1.08534	  1.13270	  1.63123	  0.04923	  3.21941	703.53003	 22.00	
  5.094	-47.331	  3.20877	  1.62739	  1.16844	  1.01054	  1.76602	  0.03928	  3.22059	703.46997	 22.00	
  5.104	-66.290	  3.20505	  1.48186	  1.29506	  0.92916	  1.86146	  0.03340	  3.22112	703.44000	 22.00	
  5.093	-85.207	  3.20307	  1.31786	  1.44518	  0.88923	  1.90291	  0.02679	  3.22188	703.56000	 22.00	
  5.105	-104.191	  3.19867	  1.15631	  1.60359	  0.89303	  1.88508	  0.02456	  3.22149	703.41998	 22.00	
  5.095	-123.033	  3.19483	  1.01421	  1.75581	  0.94251	  1.81455	  0.02192	  3.22173	703.45001	 22.00	
  5.109	-142.013	  3.19122	  0.90257	  1.88187	  1.03353	  1.69405	  0.02350	  3.22031	703.51001	 21.90	
  5.099	-161.165	  3.19146	  0.83026	  1.96646	  1.16534	  1.53954	  0.02364	  3.22032	703.53998	 21.90	
  5.100	180.000	  3.19300	  0.80440	  1.99616	  1.32311	  1.37553	  0.02635	  3.22175	703.56000	 21.90	
  6.800	180.000	  3.16195	  0.61391	  2.15019	  1.28670	  1.34563	  0.00469	  3.22290	703.57001	 21.90	
  6.796	-166.229	  3.15978	  0.63109	  2.12904	  1.12893	  1.50645	  0.00236	  3.22165	703.53998	 21.90	
  6.808	-152.311	  3.15911	  0.68412	  2.06503	  0.98680	  1.66689	 -0.00062	  3.22175	703.54999	 21.90	
  6.795	-138.383	  3.15854	  0.76883	  1.96439	  0.87055	  1.80810	 -0.00248	  3.21919	703.54999	 21.90	
  6.792	-124.591	  3.16243	  0.87957	  1.83873	  0.78268	  1.92769	 -0.00365	  3.22083	703.51001	 21.90	
  6.787	-110.754	  3.16772	  1.01542	  1.69005	  0.72309	  2.01434	 -0.00416	  3.22331	703.54999	 21.90	
  6.800	-96.985	  3.16850	  1.16608	  1.53142	  0.69506	  2.05940	 -0.00177	  3.21976	703.44000	 21.90	
  6.800	-83.015	  3.17387	  1.33230	  1.37505	  0.69974	  2.06433	  0.00236	  3.22173	703.47998	 21.90	
  6.787	-69.246	  3.17814	  1.49257	  1.22821	  0.73924	  2.02068	  0.00695	  3.21964	703.50000	 21.90	
  6.792	-55.409	  3.18508	  1.64496	  1.09770	  0.81116	  1.93989	  0.01195	  3.22227	703.57001	 21.90	
  6.795	-41.617	  3.18765	  1.77696	  0.99087	  0.90955	  1.82544	  0.01947	  3.22010	703.46997	 21.90	
  6.808	-27.689	  3.18741	  1.87744	  0.90821	  1.03113	  1.68352	  0.02733	  3.21641	703.59003	 21.90	
  6.796	-13.771	  3.19097	  1.94126	  0.86202	  1.18073	  1.52356	  0.03339	  3.21667	703.41998	 21.90	
  6.800	  0.000	  3.19606	  1.96361	  0.84798	  1.33955	  1.36256	  0.04015	  3.21984	703.41998	 21.90	
  6.796	 13.771	  3.19524	  1.93870	  0.86269	  1.49967	  1.20670	  0.04734	  3.21833	703.46002	 21.90	
  6.808	 27.689	  3.19800	  1.87518	  0.91018	  1.65979	  1.06055	  0.04843	  3.22152	703.46997	 21.90	
  6.795	 41.617	  3.19520	  1.76708	  0.99033	  1.80063	  0.93462	  0.04785	  3.21781	703.54999	 21.90	
  6.792	 55.409	  3.19317	  1.63459	  1.09763	  1.91181	  0.83823	  0.04597	  3.22034	703.56000	 21.90	
  6.787	 69.246	  3.19177	  1.47949	  1.23318	  1.98814	  0.77585	  0.04373	  3.22057	703.41998	 21.90	
  6.800	 83.015	  3.18823	  1.31661	  1.38096	  2.02586	  0.74117	  0.03821	  3.22042	703.45001	 21.90	
  6.800	 96.985	  3.18283	  1.14907	  1.54131	  2.01970	  0.73608	  0.03352	  3.22041	703.42999	 21.90	
  6.787	110.754	  3.17879	  0.99924	  1.69781	  1.96834	  0.76857	  0.02852	  3.22141	703.58002	 21.90	
  6.792	124.591	  3.17512	  0.86535	  1.84831	  1.88003	  0.83414	  0.02351	  3.22150	703.53003	 21.90	
  6.795	138.383	  3.16947	  0.75583	  1.97252	  1.75988	  0.92405	  0.02014	  3.22116	703.53003	 21.90	
  6.808	152.311	  3.16332	  0.67510	  2.06788	  1.61133	  1.04558	  0.01144	  3.21698	703.34998	 21.90	
  6.796	166.229	  3.16040	  0.62634	  2.13024	  1.44522	  1.18998	  0.00511	  3.21801	703.46002	 21.90	
  8.491	168.704	  3.11976	  0.43304	  2.28012	  1.40805	  1.14771	 -0.02376	  3.22136	703.42999	 21.90	
  8.502	157.493	  3.11817	  0.46684	  2.22901	  1.57396	  0.99449	 -0.01867	  3.21782	703.51001	 21.90	
  8.494	146.194	  3.12239	  0.53367	  2.14549	  1.73530	  0.85992	 -0.01103	  3.21756	703.56000	 21.90	
  8.495	135.039	  3.12874	  0.62220	  2.03502	  1.87781	  0.74682	 -0.00706	  3.22042	703.53003	 21.90	
  8.487	123.723	  3.13570	  0.73942	  1.89915	  2.00262	  0.65603	 -0.00441	  3.22238	703.45001	 21.90	
  8.492	112.575	  3.13692	  0.87130	  1.74874	  2.09262	  0.59309	  0.00148	  3.21815	703.50000	 21.90	
  8.510	101.220	  3.14194	  1.02596	  1.58616	  2.15550	  0.55276	  0.00685	  3.21808	703.57001	 21.90	
  8.500	 90.000	  3.14994	  1.19206	  1.42462	  2.18189	  0.54297	  0.01121	  3.22087	703.42999	 21.90	
  8.510	 78.780	  3.15375	  1.35815	  1.26597	  2.17152	  0.55610	  0.01075	  3.22080	703.45001	 21.90	
  8.492	 67.425	  3.15786	  1.53101	  1.11629	  2.11872	  0.60450	  0.01972	  3.21875	703.40997	 21.90	
  8.487	 56.277	  3.16141	  1.68691	  0.98392	  2.03952	  0.67041	  0.02394	  3.21906	703.54999	 21.90	
  8.495	 44.961	  3.16276	  1.83242	  0.86738	  1.92674	  0.76437	  0.02578	  3.21892	703.42999	 21.90	
  8.494	 33.806	  3.16516	  1.95291	  0.77683	  1.79553	  0.87743	  0.02483	  3.21888	703.40002	 21.90	
  8.502	 22.507	  3.16565	  2.04424	  0.70704	  1.63904	  1.01330	  0.02480	  3.22000	703.40002	 21.90	
  8.491	 11.296	  3.16403	  2.09857	  0.66879	  1.47411	  1.16529	  0.02445	  3.21873	703.47998	 21.90	
  8.500	  0.000	  3.16534	  2.12387	  0.65303	  1.31104	  1.32557	  0.01719	  3.22161	703.56000	 21.90	
  8.491	-11.296	  3.16170	  2.10350	  0.66769	  1.14358	  1.49522	  0.00879	  3.21982	703.59998	 21.90	
  8.502	-22.507	  3.16062	  2.05227	  0.70515	  0.99114	  1.66005	  0.00307	  3.22132	703.56000	 21.80	
  8.494	-33.806	  3.15570	  1.96168	  0.77383	  0.85404	  1.81413	 -0.00129	  3.21979	703.53998	 21.80	
  8.495	-44.961	  3.15007	  1.84398	  0.86392	  0.73258	  1.95359	 -0.01065	  3.21914	703.59998	 21.80	
  8.487	-56.277	  3.14292	  1.70298	  0.97514	  0.63557	  2.06611	 -0.01626	  3.21681	703.47998	 21.80	
  8.492	-67.425	  3.13941	  1.54874	  1.10402	  0.56346	  2.15221	 -0.01990	  3.21932	703.60999	 21.80	
  8.510	-78.780	  3.13491	  1.37852	  1.25545	  0.51486	  2.20737	 -0.02245	  3.22050	703.47998	 21.80	
  8.500	-90.000	  3.12996	  1.21041	  1.41464	  0.49751	  2.22147	 -0.02502	  3.22069	703.46002	 21.80	
  8.510	-101.220	  3.12567	  1.04637	  1.57818	  0.50400	  2.20067	 -0.03104	  3.22178	703.58002	 21.80	
  8.492	-112.575	  3.11734	  0.89202	  1.73848	  0.54166	  2.13957	 -0.03217	  3.21651	703.51001	 21.80	
  8.487	-123.723	  3.11734	  0.75835	  1.88942	  0.60275	  2.05220	 -0.03022	  3.21921	703.46997	 21.80	
  8.495	-135.039	  3.11453	  0.64298	  2.02357	  0.69073	  1.93314	 -0.02673	  3.21783	703.48999	 21.80	
  8.494	-146.194	  3.11038	  0.54892	  2.13473	  0.79850	  1.79278	 -0.02876	  3.21576	703.40002	 21.80	
  8.502	-157.493	  3.11281	  0.47846	  2.22221	  0.92883	  1.63889	 -0.02628	  3.21884	703.40002	 21.80	
  8.491	-168.704	  3.11174	  0.43650	  2.27389	  1.07717	  1.47441	 -0.02369	  3.21773	703.40997	 21.80	
  8.500	180.000	  3.11090	  0.41968	  2.29351	  1.23951	  1.30493	 -0.02298	  3.21538	703.45001	 21.80	
 10.200	180.000	  3.05917	  0.23133	  2.43161	  1.18995	  1.26213	 -0.05138	  3.21934	703.40997	 21.80	
 10.191	-170.497	  3.05741	  0.24589	  2.41299	  1.02396	  1.42988	 -0.05281	  3.21897	703.53003	 21.80	
 10.210	-161.034	  3.05578	  0.27846	  2.36877	  0.86888	  1.59884	 -0.05581	  3.21896	703.40997	 21.80	
 10.194	-151.526	  3.05638	  0.33644	  2.29562	  0.73273	  1.76009	 -0.05491	  3.21857	703.44000	 21.80	
 10.190	-142.105	  3.05885	  0.41589	  2.19598	  0.61242	  1.91290	 -0.05346	  3.21930	703.41998	 21.80	
 10.215	-132.646	  3.05903	  0.51151	  2.07308	  0.50327	  2.05300	 -0.05470	  3.21822	703.34998	 21.80	
 10.203	-123.092	  3.06029	  0.63345	  1.93160	  0.42067	  2.16945	 -0.05400	  3.21709	703.46997	 21.80	
 10.192	-113.678	  3.06635	  0.77125	  1.77731	  0.36401	  2.25866	 -0.05915	  3.21972	703.53998	 21.80	
 10.208	-104.249	  3.07060	  0.92096	  1.61597	  0.32369	  2.32604	 -0.05764	  3.22061	703.58002	 21.80	
 10.210	-94.801	  3.07383	  1.08271	  1.45077	  0.30894	  2.35369	 -0.05262	  3.21652	703.46997	 21.80	
 10.210	-85.199	  3.07833	  1.25229	  1.28534	  0.31140	  2.35995	 -0.04908	  3.21762	703.59003	 21.80	
 10.208	-75.751	  3.08612	  1.42415	  1.12876	  0.34059	  2.33133	 -0.04823	  3.21950	703.56000	 21.80	
 10.192	-66.322	  3.08940	  1.59117	  0.98227	  0.38819	  2.27220	 -0.04872	  3.21670	703.54999	 21.80	
 10.203	-56.908	  3.09335	  1.74901	  0.84869	  0.45320	  2.18975	 -0.04896	  3.21790	703.54999	 21.80	
 10.215	-47.354	  3.10065	  1.89828	  0.73303	  0.54870	  2.07434	 -0.04268	  3.21902	703.42999	 21.80	
 10.190	-37.895	  3.10756	  2.02583	  0.63924	  0.66596	  1.93853	 -0.03367	  3.22023	703.52002	 21.80	
 10.194	-28.474	  3.11223	  2.13163	  0.56284	  0.79845	  1.78714	 -0.02938	  3.21941	703.51001	 21.80	
 10.210	-18.966	  3.11627	  2.20789	  0.50660	  0.94143	  1.62809	 -0.02452	  3.21986	703.70001	 21.80	
 10.191	 -9.503	  3.11843	  2.25278	  0.47637	  1.10381	  1.45692	 -0.01815	  3.21928	703.66998	 21.80	
 10.200	  0.000	  3.12177	  2.26872	  0.46414	  1.27152	  1.28470	 -0.00995	  3.22107	703.65002	 21.80	
 10.191	  9.503	  3.12239	  2.25058	  0.47690	  1.43897	  1.12300	 -0.00133	  3.21879	703.51001	 21.80	
 10.210	 18.966	  3.12316	  2.20383	  0.51011	  1.60795	  0.96639	 -0.00142	  3.22047	703.56000	 21.80	
 10.194	 28.474	  3.12278	  2.12367	  0.56826	  1.77236	  0.82133	 -0.00110	  3.22051	703.51001	 21.80	
 10.190	 37.895	  3.12250	  2.01597	  0.64593	  1.91882	  0.69510	 -0.00159	  3.22117	703.53998	 21.80	
 10.215	 47.354	  3.12004	  1.88610	  0.74349	  2.05390	  0.58365	 -0.00074	  3.22109	703.60999	 21.80	
 10.203	 56.908	  3.11688	  1.73575	  0.85962	  2.16497	  0.49270	 -0.00470	  3.21935	703.65002	 21.80	
 10.192	 66.322	  3.11354	  1.57532	  0.99340	  2.24755	  0.42700	 -0.00942	  3.21879	703.62000	 21.80	
 10.208	 75.751	  3.10889	  1.40524	  1.13855	  2.30398	  0.37791	 -0.01530	  3.22039	703.60999	 21.80	
 10.210	 85.199	  3.10259	  1.23038	  1.29592	  2.32703	  0.35402	 -0.01689	  3.21935	703.52002	 21.80	
 10.210	 94.801	  3.09664	  1.05779	  1.46309	  2.32083	  0.35254	 -0.01777	  3.21889	703.58002	 21.80	
 10.208	104.249	  3.09255	  0.89461	  1.63093	  2.28203	  0.37441	 -0.02264	  3.22137	703.59998	 21.80	
 10.192	113.678	  3.08696	  0.74405	  1.79327	  2.21155	  0.41697	 -0.03019	  3.21922	703.53003	 21.80	
 10.203	123.092	  3.07975	  0.61204	  1.94358	  2.11481	  0.48405	 -0.03429	  3.21795	703.54999	 21.80	
 10.215	132.646	  3.07513	  0.49349	  2.08514	  1.99297	  0.57121	 -0.03640	  3.21970	703.52002	 21.80	
 10.190	142.105	  3.07079	  0.39846	  2.20473	  1.85069	  0.67904	 -0.03806	  3.21975	703.65002	 21.80	
 10.194	151.526	  3.06722	  0.32375	  2.30267	  1.69808	  0.80148	 -0.04497	  3.21849	703.59998	 21.80	
 10.210	161.034	  3.06336	  0.26916	  2.37492	  1.52898	  0.94451	 -0.04968	  3.21994	703.69000	 21.80	
 10.191	170.497	  3.06017	  0.23985	  2.41831	  1.35757	  1.10083	 -0.05142	  3.21916	703.65002	 21.80	
 11.899	171.783	  2.98999	  0.04701	  2.54526	  1.30025	  1.04028	 -0.07980	  3.21560	703.51001	 21.80	
 11.890	163.610	  2.99713	  0.07751	  2.50771	  1.47415	  0.88813	 -0.07885	  3.21994	703.58002	 21.80	
 11.889	155.445	  2.99787	  0.12075	  2.44403	  1.64351	  0.74148	 -0.07667	  3.21837	703.59003	 21.80	
 11.909	147.299	  3.00237	  0.18256	  2.35986	  1.80454	  0.61208	 -0.07300	  3.21705	703.54999	 21.80	
 11.902	139.148	  3.00775	  0.26319	  2.25180	  1.95985	  0.49288	 -0.06960	  3.21925	703.53003	 21.80	
 11.894	130.867	  3.01072	  0.36733	  2.12116	  2.09843	  0.39369	 -0.06715	  3.21685	703.57001	 21.80	
 11.897	122.732	  3.01759	  0.48241	  1.98001	  2.21949	  0.31134	 -0.06456	  3.21880	703.53998	 21.80	
 11.903	114.597	  3.02391	  0.61431	  1.82741	  2.31822	  0.24617	 -0.06175	  3.22101	703.45001	 21.80	
 11.893	106.346	  3.02977	  0.76237	  1.66391	  2.38976	  0.20282	 -0.05605	  3.21834	703.52002	 21.80	
 11.892	 98.155	  3.03797	  0.92399	  1.49890	  2.43945	  0.17735	 -0.05131	  3.22162	703.58002	 21.80	
 11.900	 90.000	  3.04036	  1.08937	  1.32983	  2.45807	  0.16785	 -0.04985	  3.21746	703.60999	 21.80	
 11.892	 81.845	  3.04844	  1.26183	  1.16953	  2.45580	  0.17674	 -0.04870	  3.22073	703.53003	 21.80	
 11.893	 73.654	  3.05162	  1.43754	  1.01175	  2.41802	  0.20690	 -0.04690	  3.21657	703.50000	 21.80	
 11.903	 65.403	  3.05587	  1.61000	  0.86703	  2.35924	  0.25527	 -0.04412	  3.21783	703.51001	 21.80	
 11.897	 57.268	  3.05808	  1.77215	  0.73335	  2.27575	  0.31892	 -0.03854	  3.21807	703.53003	 21.80	
 11.894	 49.133	  3.06061	  1.92639	  0.61364	  2.16707	  0.40367	 -0.03554	  3.21761	703.53998	 21.80	
 11.902	 40.852	  3.06473	  2.06735	  0.51256	  2.03579	  0.51113	 -0.03211	  3.21970	703.50000	 21.80	
 11.909	 32.701	  3.06489	  2.18330	  0.42821	  1.88972	  0.63083	 -0.03116	  3.21845	703.56000	 21.80	
 11.889	 24.555	  3.06627	  2.27689	  0.36432	  1.73557	  0.76307	 -0.03014	  3.21924	703.62000	 21.80	
 11.890	 16.390	  3.06662	  2.34616	  0.31776	  1.56813	  0.91146	 -0.02944	  3.21787	703.60999	 21.80	
 11.899	  8.217	  3.06563	  2.38959	  0.28909	  1.39581	  1.07313	 -0.03271	  3.21909	703.56000	 21.80	
 11.900	  0.000	  3.06504	  2.40606	  0.27809	  1.22676	  1.23753	 -0.03941	  3.21896	703.59003	 21.80	
 11.899	 -8.217	  3.06334	  2.39360	  0.28576	  1.05666	  1.40790	 -0.04667	  3.21857	703.62000	 21.80	
 11.890	-16.390	  3.06080	  2.35366	  0.31358	  0.89421	  1.58155	 -0.05291	  3.21882	703.58002	 21.80	
 11.889	-24.555	  3.05565	  2.28563	  0.35944	  0.74497	  1.74529	 -0.05466	  3.21615	703.59003	 21.80	
 11.909	-32.701	  3.05206	  2.19654	  0.42059	  0.60638	  1.90495	 -0.06020	  3.21767	703.59998	 21.80	
 11.902	-40.852	  3.04725	  2.08127	  0.50312	  0.48183	  2.05305	 -0.06256	  3.21994	703.57001	 21.80	
 11.894	-49.133	  3.04147	  1.94418	  0.60583	  0.37617	  2.18599	 -0.06839	  3.21801	703.64001	 21.80	
 11.897	-57.268	  3.03389	  1.79341	  0.72269	  0.28999	  2.29307	 -0.06814	  3.21427	703.62000	 21.80	
 11.903	-65.403	  3.02963	  1.63460	  0.85276	  0.22047	  2.38263	 -0.06855	  3.21694	703.59998	 21.80	
 11.893	-73.654	  3.02308	  1.46298	  0.99683	  0.16922	  2.44512	 -0.06857	  3.21789	703.60999	 21.80	
 11.892	-81.845	  3.01853	  1.28755	  1.15321	  0.13429	  2.48559	 -0.06771	  3.21968	703.59003	 21.80	
 11.900	-90.000	  3.01315	  1.11807	  1.31359	  0.12084	  2.49483	 -0.06938	  3.21805	703.62000	 21.80	
 11.892	-98.155	  3.00796	  0.95099	  1.48029	  0.12596	  2.47896	 -0.06959	  3.21823	703.70001	 21.70	
 11.893	-106.346	  3.00439	  0.79001	  1.64884	  0.14693	  2.43556	 -0.07344	  3.22050	703.57001	 21.80	
 11.903	-114.597	  2.99952	  0.64150	  1.81168	  0.18874	  2.36629	 -0.07396	  3.21835	703.72998	 21.70	
 11.897	-122.732	  2.99793	  0.51062	  1.96517	  0.25161	  2.27423	 -0.07194	  3.21918	703.62000	 21.80	
 11.894	-130.867	  2.99182	  0.38640	  2.11001	  0.32475	  2.15908	 -0.07141	  3.21665	703.71997	 21.70	
 11.902	-139.148	  2.99265	  0.28635	  2.24011	  0.42352	  2.02577	 -0.07607	  3.21905	703.60999	 21.70	
 11.909	-147.299	  2.99148	  0.19923	  2.35159	  0.53859	  1.87291	 -0.07809	  3.21842	703.66998	 21.80	
 11.889	-155.445	  2.99039	  0.13346	  2.43867	  0.66995	  1.70903	 -0.07931	  3.21748	703.59003	 21.80	
 11.890	-163.610	  2.99085	  0.08704	  2.50305	  0.80912	  1.55254	 -0.08191	  3.21942	703.63000	 21.80	
 11.899	-171.783	  2.99072	  0.05686	  2.54236	  0.96454	  1.38063	 -0.07949	  3.21846	703.65002	 21.70	
 11.900	180.000	  2.98815	  0.04166	  2.55609	  1.13034	  1.20402	 -0.08057	  3.21626	703.53003	 21.70	
 13.600	180.000	  2.91318	 -0.14117	  2.67547	  1.06537	  1.14632	 -0.10618	  3.21831	703.67999	 21.70	
 13.608	-172.853	  2.90668	 -0.13419	  2.66090	  0.89737	  1.31382	 -0.10356	  3.21562	703.66998	 21.70	
 13.611	-165.583	  2.90680	 -0.10766	  2.62402	  0.74000	  1.48683	 -0.10257	  3.21471	703.57001	 21.80	
 13.601	-158.353	  2.91011	 -0.06382	  2.56837	  0.59700	  1.65746	 -0.09819	  3.21908	703.59003	 21.70	
 13.609	-151.210	  2.90935	 -0.00653	  2.48783	  0.46315	  1.82230	 -0.09397	  3.21647	703.50000	 21.70	
 13.611	-143.999	  2.90968	  0.06496	  2.38898	  0.34116	  1.97904	 -0.09456	  3.21814	703.51001	 21.70	
 13.601	-136.825	  2.91478	  0.15620	  2.27220	  0.23935	  2.12488	 -0.08887	  3.22008	703.62000	 21.70	
 13.596	-129.640	  2.91412	  0.25773	  2.13907	  0.14949	  2.25193	 -0.08486	  3.21674	703.51001	 21.70	
 13.611	-122.431	  2.92032	  0.37799	  1.99420	  0.07381	  2.37165	 -0.08569	  3.22037	703.60999	 21.70	
 13.604	-115.211	  2.91981	  0.50833	  1.83374	  0.01425	  2.46253	 -0.08316	  3.21564	703.62000	 21.70	
 13.595	-108.042	  2.92532	  0.65488	  1.67237	 -0.02641	  2.53782	 -0.08059	  3.21963	703.54999	 21.70	
 13.607	-100.793	  2.93144	  0.81134	  1.50587	 -0.05476	  2.59263	 -0.08283	  3.22050	703.70001	 21.70	
 13.601	-93.617	  2.93558	  0.97670	  1.33711	 -0.06364	  2.61634	 -0.08070	  3.21994	703.54999	 21.70	
 13.601	-86.383	  2.94205	  1.14640	  1.17407	 -0.06055	  2.62184	 -0.07853	  3.22032	703.65002	 21.70	
 13.607	-79.207	  2.94319	  1.31667	  1.01165	 -0.04102	  2.59707	 -0.08115	  3.21624	703.59003	 21.70	
 13.595	-71.958	  2.95312	  1.49445	  0.86259	 -0.00239	  2.55197	 -0.08381	  3.21839	703.59003	 21.70	
 13.604	-64.789	  2.95872	  1.66202	  0.72123	  0.04753	  2.48430	 -0.08458	  3.21731	703.54999	 21.70	
 13.611	-57.569	  2.96318	  1.82668	  0.58861	  0.11475	  2.39532	 -0.08623	  3.21670	703.60999	 21.70	
 13.596	-50.360	  2.96695	  1.97853	  0.47302	  0.20156	  2.28290	 -0.08696	  3.21589	703.57001	 21.70	
 13.601	-43.175	  2.97313	  2.11872	  0.37155	  0.29932	  2.15654	 -0.08606	  3.21537	703.60999	 21.70	
 13.611	-36.001	  2.97903	  2.24133	  0.28600	  0.41312	  2.01630	 -0.08466	  3.21690	703.51001	 21.70	
 13.609	-28.790	  2.98621	  2.34755	  0.21542	  0.54634	  1.85927	 -0.08086	  3.21852	703.53998	 21.70	
 13.601	-21.647	  2.98863	  2.42791	  0.16138	  0.68786	  1.69548	 -0.08043	  3.21675	703.48999	 21.70	
 13.611	-14.417	  2.99270	  2.49165	  0.11801	  0.83792	  1.52695	 -0.07895	  3.21901	703.53003	 21.70	
 13.608	 -7.147	  2.99610	  2.52554	  0.09632	  1.00439	  1.35026	 -0.07601	  3.21715	703.35999	 21.70	
 13.600	  0.000	  2.99735	  2.53369	  0.09347	  1.17301	  1.18177	 -0.07070	  3.21750	703.41998	 21.70	
 13.608	  7.147	  2.99923	  2.52404	  0.09870	  1.34016	  1.01862	 -0.06568	  3.21862	703.42999	 21.70	
 13.611	 14.417	  3.00072	  2.48561	  0.12397	  1.51720	  0.85550	 -0.06168	  3.21984	703.52002	 21.70	
 13.601	 21.647	  3.00073	  2.41838	  0.16966	  1.68858	  0.70544	 -0.06108	  3.21766	703.58002	 21.70	
 13.609	 28.790	  3.00160	  2.33667	  0.22327	  1.84957	  0.56788	 -0.06121	  3.22008	703.59003	 21.70	
 13.611	 36.001	  2.99694	  2.22743	  0.29484	  2.00241	  0.43889	 -0.06303	  3.21785	703.53003	 21.70	
 13.601	 43.175	  2.99108	  2.10040	  0.37887	  2.14165	  0.32333	 -0.06801	  3.21369	703.66998	 21.70	
 13.596	 50.360	  2.99285	  1.96072	  0.48519	  2.26990	  0.22834	 -0.07077	  3.21898	703.54999	 21.70	
 13.611	 57.569	  2.99188	  1.80444	  0.60569	  2.37504	  0.15251	 -0.07296	  3.21884	703.58002	 21.70	
 13.604	 64.789	  2.98737	  1.63908	  0.73568	  2.46147	  0.08572	 -0.07912	  3.21844	703.57001	 21.70	
 13.595	 71.958	  2.98168	  1.46620	  0.87731	  2.52467	  0.03705	 -0.08301	  3.21734	703.66998	 21.70	
 13.607	 79.207	  2.97564	  1.28980	  1.02981	  2.56585	  0.00357	 -0.08340	  3.21685	703.54999	 21.70	
 13.601	 86.383	  2.97387	  1.11613	  1.19057	  2.58800	 -0.01557	 -0.08456	  3.22035	703.58002	 21.70	
 13.601	 93.617	  2.96533	  0.94447	  1.35610	  2.57619	 -0.01425	 -0.08341	  3.21521	703.54999	 21.70	
 13.607	100.793	  2.95789	  0.77841	  1.52276	  2.54591	 -0.00046	 -0.08727	  3.21485	703.50000	 21.70	
 13.595	108.042	  2.95319	  0.62356	  1.68994	  2.48818	  0.03305	 -0.09135	  3.21658	703.60999	 21.70	
 13.604	115.211	  2.94866	  0.48509	  1.85185	  2.41241	  0.08046	 -0.09410	  3.21820	703.57001	 21.70	
 13.611	122.431	  2.94154	  0.35208	  2.00818	  2.31148	  0.14337	 -0.09844	  3.21667	703.54999	 21.70	
 13.596	129.640	  2.93572	  0.23232	  2.15250	  2.19270	  0.21906	 -0.10199	  3.21651	703.54999	 21.70	
 13.601	136.825	  2.92916	  0.13155	  2.28522	  2.05828	  0.31183	 -0.10324	  3.21536	703.60999	 21.70	
 13.611	143.999	  2.92588	  0.04762	  2.40010	  1.90868	  0.42112	 -0.10366	  3.21631	703.59998	 21.70	
 13.609	151.210	  2.92524	 -0.02072	  2.49960	  1.74800	  0.54651	 -0.10848	  3.21826	703.59998	 21.70	
 13.601	158.353	  2.92017	 -0.07605	  2.57566	  1.58303	  0.67845	 -0.10952	  3.21919	703.62000	 21.70	
 13.611	165.583	  2.91741	 -0.11314	  2.63259	  1.40855	  0.82898	 -0.10625	  3.21910	703.59998	 21.70	
 13.608	172.853	  2.91116	 -0.13662	  2.66329	  1.23025	  0.98577	 -0.10658	  3.21595	703.59003	 21.70	
 15.298	173.587	  2.82524	 -0.30776	  2.76886	  1.16138	  0.92342	 -0.13015	  3.21638	703.66998	 21.70	
 15.291	167.167	  2.82691	 -0.29085	  2.73895	  1.33353	  0.76457	 -0.13174	  3.21675	703.65997	 21.70	
 15.307	160.676	  2.83223	 -0.26241	  2.69331	  1.51109	  0.61343	 -0.13427	  3.21983	703.66998	 21.70	
 15.300	154.261	  2.83450	 -0.21636	  2.62461	  1.67745	  0.47917	 -0.13820	  3.21954	703.65002	 21.70	
 15.288	147.854	  2.83826	 -0.15246	  2.53294	  1.84375	  0.35346	 -0.14022	  3.21690	703.67999	 21.70	
 15.293	141.428	  2.84255	 -0.08007	  2.42840	  2.00091	  0.23938	 -0.13823	  3.21592	703.59003	 21.70	
 15.299	134.985	  2.84867	  0.00727	  2.30763	  2.14814	  0.13858	 -0.13674	  3.21831	703.57001	 21.70	
 15.305	128.583	  2.85277	  0.10594	  2.17402	  2.28022	  0.05038	 -0.13662	  3.21889	703.65002	 21.70	
 15.309	122.142	  2.85748	  0.21882	  2.02752	  2.39924	 -0.02644	 -0.13434	  3.21731	703.62000	 21.70	
 15.304	115.711	  2.86395	  0.35046	  1.86780	  2.50148	 -0.08702	 -0.13209	  3.21878	703.63000	 21.70	
 15.297	109.291	  2.86914	  0.48703	  1.70800	  2.58050	 -0.13320	 -0.12980	  3.21950	703.78998	 21.70	
 15.293	102.897	  2.87588	  0.63565	  1.54393	  2.64131	 -0.16748	 -0.12411	  3.21783	703.71997	 21.70	
 15.293	 96.458	  2.88221	  0.79777	  1.37300	  2.68165	 -0.18778	 -0.12318	  3.21675	703.71002	 21.70	
 15.300	 90.000	  2.88859	  0.96512	  1.20895	  2.70110	 -0.19353	 -0.12273	  3.21770	703.64001	 21.70	
 15.293	 83.542	  2.88841	  1.13345	  1.04400	  2.69290	 -0.18839	 -0.12352	  3.21292	703.69000	 21.70	
 15.293	 77.103	  2.89769	  1.31529	  0.88826	  2.66969	 -0.16334	 -0.12366	  3.21696	703.60999	 21.70	
 15.297	 70.709	  2.90318	  1.48724	  0.74178	  2.62300	 -0.12872	 -0.12199	  3.21766	703.71997	 21.70	
 15.304	 64.289	  2.90788	  1.65741	  0.60287	  2.55778	 -0.08207	 -0.11790	  3.21847	703.62000	 21.70	
 15.309	 57.858	  2.91063	  1.82529	  0.47511	  2.46769	 -0.01714	 -0.11169	  3.21614	703.67999	 21.70	
 15.305	 51.417	  2.91543	  1.98389	  0.35901	  2.36211	  0.06108	 -0.10802	  3.21650	703.65997	 21.70	
 15.299	 45.015	  2.91769	  2.12718	  0.25583	  2.23982	  0.15059	 -0.10718	  3.21613	703.70001	 21.70	
 15.293	 38.572	  2.92108	  2.25788	  0.16876	  2.10464	  0.25508	 -0.10221	  3.21811	703.75000	 21.70	
 15.288	 32.146	  2.92326	  2.37662	  0.08950	  1.95494	  0.37383	 -0.09781	  3.21849	703.65997	 21.70	
 15.300	 25.739	  2.92311	  2.47453	  0.02637	  1.79449	  0.50324	 -0.09499	  3.21816	703.78998	 21.70	
 15.307	 19.324	  2.92284	  2.54993	 -0.02369	  1.62963	  0.63956	 -0.09590	  3.21736	703.65002	 21.70	
 15.291	 12.833	  2.92336	  2.60736	 -0.05788	  1.45663	  0.79624	 -0.09535	  3.21866	703.60999	 21.70	
 15.298	  6.413	  2.92022	  2.64067	 -0.08062	  1.28326	  0.95415	 -0.09657	  3.21598	703.59998	 21.70	
 15.300	  0.000	  2.92081	  2.65376	 -0.08704	  1.11508	  1.11868	 -0.09847	  3.21730	703.66998	 21.70	
 15.298	 -6.413	  2.91729	  2.64247	 -0.08004	  0.94513	  1.28985	 -0.10232	  3.21557	703.59998	 21.70	
 15.291	-12.833	  2.91541	  2.61060	 -0.06228	  0.78337	  1.46151	 -0.10325	  3.21687	703.69000	 21.70	
 15.307	-19.324	  2.91325	  2.56206	 -0.03097	  0.62887	  1.63322	 -0.10205	  3.21902	703.64001	 21.70	
 15.300	-25.739	  2.90691	  2.48548	  0.01569	  0.48273	  1.80075	 -0.10237	  3.21705	703.67999	 21.70	
 15.288	-32.146	  2.90267	  2.38742	  0.08079	  0.35036	  1.96184	 -0.10155	  3.21634	703.60999	 21.70	
 15.293	-38.572	  2.89878	  2.27660	  0.15511	  0.23184	  2.11110	 -0.10098	  3.21657	703.67999	 21.70	
 15.299	-45.015	  2.89347	  2.14845	  0.24424	  0.12461	  2.25184	 -0.10108	  3.21768	703.69000	 21.70	
 15.305	-51.417	  2.88755	  2.00503	  0.34323	  0.02879	  2.37765	 -0.09927	  3.21815	703.82001	 21.70	
 15.309	-57.858	  2.88439	  1.85271	  0.45904	 -0.05279	  2.48997	 -0.09546	  3.22045	703.73999	 21.70	
 15.304	-64.289	  2.87628	  1.68537	  0.58650	 -0.11746	  2.57571	 -0.09658	  3.21757	703.69000	 21.70	
 15.297	-70.709	  2.87176	  1.51687	  0.72415	 -0.16620	  2.64462	 -0.09202	  3.21967	703.59998	 21.70	
 15.293	-77.103	  2.86586	  1.34484	  0.87260	 -0.20185	  2.69514	 -0.09040	  3.21937	703.62000	 21.70	
 15.293	-83.542	  2.85921	  1.16915	  1.02797	 -0.22748	  2.72263	 -0.08635	  3.21683	703.70001	 21.70	
 15.300	-90.000	  2.85489	  0.99893	  1.18990	 -0.23728	  2.73090	 -0.08611	  3.22011	703.73999	 21.70	
 15.293	-96.458	  2.84834	  0.83236	  1.35324	 -0.23348	  2.71675	 -0.08599	  3.21666	703.71002	 21.70	
 15.293	-102.897	  2.84447	  0.67099	  1.52379	 -0.21997	  2.68209	 -0.08813	  3.21800	703.72998	 21.70	
 15.297	-109.291	  2.83865	  0.51804	  1.68804	 -0.19372	  2.62712	 -0.08780	  3.21766	703.71002	 21.70	
 15.304	-115.711	  2.83517	  0.37902	  1.84957	 -0.15120	  2.55278	 -0.08744	  3.21833	703.62000	 21.70	
 15.309	-122.142	  2.82771	  0.24605	  2.00581	 -0.09810	  2.45731	 -0.08947	  3.21552	703.67999	 21.70	
 15.305	-128.583	  2.82581	  0.13118	  2.15458	 -0.02614	  2.34291	 -0.09341	  3.21690	703.59998	 21.70	
 15.299	-134.985	  2.82524	  0.02903	  2.29060	  0.05826	  2.21455	 -0.09435	  3.21660	703.70001	 21.70	
 15.293	-141.428	  2.82252	 -0.06170	  2.41346	  0.15720	  2.07099	 -0.09731	  3.21617	703.66998	 21.70	
 15.288	-147.854	  2.82100	 -0.13591	  2.52156	  0.26763	  1.92052	 -0.10469	  3.21671	703.65997	 21.70	
 15.300	-154.261	  2.82191	 -0.20083	  2.61201	  0.39024	  1.75924	 -0.10831	  3.21760	703.66998	 21.70	
 15.307	-160.676	  2.81920	 -0.24991	  2.68496	  0.52701	  1.58912	 -0.11165	  3.21748	703.66998	 21.70	
 15.291	-167.167	  2.82345	 -0.28300	  2.73701	  0.67329	  1.42264	 -0.11660	  3.21887	703.66998	 21.70	
 15.298	-173.587	  2.82171	 -0.30709	  2.76693	  0.82909	  1.25120	 -0.12399	  3.21844	703.73999	 21.70	
 15.300	180.000	  2.82437	 -0.31304	  2.77892	  0.99642	  1.08280	 -0.12456	  3.21603	703.71997	 21.70	
 17.000	180.000	  2.72805	 -0.47680	  2.87432	  0.92566	  1.01583	 -0.14262	  3.21883	703.59003	 21.70	
 16.990	-174.179	  2.72619	 -0.46588	  2.86156	  0.76375	  1.18176	 -0.13914	  3.21688	703.70001	 21.70	
 17.009	-168.383	  2.72512	 -0.45171	  2.83538	  0.60503	  1.34896	 -0.13038	  3.21856	703.59003	 21.70	
 17.000	-162.596	  2.72634	 -0.41884	  2.78896	  0.46356	  1.51731	 -0.12693	  3.21784	703.66998	 21.70	
 16.990	-156.759	  2.72625	 -0.37903	  2.72472	  0.32383	  1.68718	 -0.11904	  3.21822	703.60999	 21.70	
 16.995	-150.919	  2.72349	 -0.32623	  2.64074	  0.19483	  1.85140	 -0.11532	  3.21735	703.65002	 21.70	
 16.988	-145.161	  2.72419	 -0.25537	  2.54334	  0.08731	  2.00595	 -0.10798	  3.21586	703.53998	 21.70	
 17.014	-139.343	  2.72375	 -0.18341	  2.43029	 -0.01906	  2.15540	 -0.10138	  3.21608	703.56000	 21.70	
 17.007	-133.546	  2.72894	 -0.09174	  2.30255	 -0.10981	  2.29460	 -0.10074	  3.21685	703.58002	 21.70	
 17.001	-127.699	  2.72892	  0.01175	  2.16178	 -0.19051	  2.42238	 -0.09622	  3.21802	703.54999	 21.70	
 17.006	-121.937	  2.73333	  0.12659	  2.01725	 -0.25288	  2.53222	 -0.09459	  3.21765	703.65997	 21.70	
 17.002	-116.134	  2.73761	  0.25220	  1.86002	 -0.30572	  2.62575	 -0.09083	  3.21720	703.59998	 21.70	
 17.001	-110.310	  2.74133	  0.38884	  1.69714	 -0.34865	  2.70494	 -0.09093	  3.21820	703.53003	 21.70	
 16.988	-104.517	  2.74512	  0.53279	  1.53171	 -0.38066	  2.76394	 -0.08722	  3.21669	703.56000	 21.70	
 17.008	-98.662	  2.75122	  0.69100	  1.36404	 -0.39953	  2.80962	 -0.09074	  3.21824	703.54999	 21.70	
 16.996	-92.909	  2.75470	  0.84992	  1.19868	 -0.40689	  2.82954	 -0.09056	  3.21764	703.65997	 21.70	
 16.996	-87.091	  2.76043	  1.01771	  1.03826	 -0.40230	  2.83208	 -0.09180	  3.21599	703.44000	 21.70	
 17.012	-81.253	  2.76676	  1.19177	  0.87601	 -0.38796	  2.81600	 -0.09089	  3.21659	703.58002	 21.70	
 16.988	-75.483	  2.77214	  1.36221	  0.72840	 -0.35976	  2.78036	 -0.09330	  3.21732	703.47998	 21.70	
 17.001	-69.690	  2.77863	  1.53377	  0.58568	 -0.32267	  2.72939	 -0.09687	  3.21950	703.52002	 21.70	
 17.002	-63.866	  2.78544	  1.70176	  0.45443	 -0.27162	  2.65477	 -0.09868	  3.21798	703.41998	 21.70	
 17.006	-58.063	  2.78977	  1.86660	  0.32900	 -0.20982	  2.56568	 -0.10259	  3.21751	703.47998	 21.70	
 17.001	-52.301	  2.79440	  2.01994	  0.21788	 -0.13589	  2.46076	 -0.10414	  3.21655	703.38000	 21.70	
 17.007	-46.454	  2.80199	  2.16601	  0.11689	 -0.04943	  2.33843	 -0.10794	  3.21835	703.29999	 21.70	
 17.014	-40.657	  2.80526	  2.30060	  0.02434	  0.05067	  2.19983	 -0.11062	  3.21711	703.46997	 21.70	
 16.988	-34.839	  2.81312	  2.42141	 -0.05353	  0.16544	  2.05216	 -0.11072	  3.21862	703.37000	 21.70	
 16.995	-29.081	  2.81632	  2.52068	 -0.11461	  0.28491	  1.90043	 -0.11810	  3.21772	703.33002	 21.70	
 16.990	-23.241	  2.82323	  2.60921	 -0.16732	  0.42296	  1.73393	 -0.11716	  3.21797	703.38000	 21.70	
 17.000	-17.404	  2.82501	  2.67742	 -0.20825	  0.57121	  1.56414	 -0.11980	  3.21833	703.34998	 21.70	
 17.009	-11.617	  2.82791	  2.72369	 -0.23674	  0.72132	  1.39435	 -0.12367	  3.21699	703.27002	 21.70	
 16.990	 -5.821	  2.83109	  2.75186	 -0.25210	  0.88153	  1.22249	 -0.12492	  3.21651	703.32001	 21.70	
 17.000	  0.000	  2.83347	  2.76073	 -0.25713	  1.05106	  1.05348	 -0.12433	  3.21627	703.34998	 21.70	
 16.990	  5.821	  2.83563	  2.74826	 -0.24877	  1.21905	  0.89087	 -0.12468	  3.21650	703.40002	 21.70	
 17.009	 11.617	  2.83571	  2.72136	 -0.23196	  1.39233	  0.73032	 -0.12909	  3.21905	703.32001	 21.70	
 17.000	 17.404	  2.83508	  2.66869	 -0.20110	  1.56447	  0.57929	 -0.12615	  3.21724	703.34998	 21.70	
 16.990	 23.241	  2.83701	  2.59884	 -0.15764	  1.72988	  0.44096	 -0.13075	  3.21841	703.34003	 21.70	
 16.995	 29.081	  2.83385	  2.50572	 -0.10010	  1.89356	  0.30822	 -0.13514	  3.21380	703.34998	 21.70	
 16.988	 34.839	  2.83360	  2.40220	 -0.03362	  2.04993	  0.18790	 -0.13895	  3.21693	703.28003	 21.70	
 17.014	 40.657	  2.83067	  2.28065	  0.04203	  2.19439	  0.07662	 -0.14345	  3.21742	703.31000	 21.70	
 17.007	 46.454	  2.82831	  2.14450	  0.13162	  2.32776	 -0.02023	 -0.14552	  3.21690	703.37000	 21.70	
 17.001	 52.301	  2.82642	  1.99538	  0.23367	  2.44869	 -0.10639	 -0.14909	  3.21768	703.28003	 21.70	
 17.006	 58.063	  2.82024	  1.83804	  0.34641	  2.54955	 -0.17853	 -0.15314	  3.21525	703.29999	 21.70	
 17.002	 63.866	  2.81948	  1.67373	  0.47520	  2.63709	 -0.23368	 -0.15603	  3.21659	703.31000	 21.70	
 17.001	 69.690	  2.81502	  1.50041	  0.60992	  2.70754	 -0.28364	 -0.16354	  3.21630	703.34998	 21.70	
 16.988	 75.483	  2.81016	  1.32668	  0.75153	  2.75694	 -0.32030	 -0.16629	  3.21543	703.39001	 21.70	
 17.012	 81.253	  2.80289	  1.15486	  0.89852	  2.79092	 -0.34743	 -0.16533	  3.21551	703.39001	 21.70	
 16.996	 87.091	  2.79985	  0.98027	  1.06067	  2.80321	 -0.35793	 -0.16376	  3.21770	703.34003	 21.70	
 16.996	 92.909	  2.79339	  0.81462	  1.22343	  2.79503	 -0.35649	 -0.16491	  3.21602	703.40997	 21.70	
 17.008	 98.662	  2.78534	  0.65062	  1.38494	  2.76882	 -0.34868	 -0.16323	  3.21576	703.48999	 21.70	
 16.988	104.517	  2.78091	  0.49747	  1.55249	  2.72169	 -0.32331	 -0.16538	  3.21623	703.42999	 21.70	
 17.001	110.310	  2.77500	  0.35428	  1.71690	  2.65925	 -0.28864	 -0.16874	  3.21823	703.32001	 21.70	
 17.002	116.134	  2.76760	  0.21612	  1.87940	  2.57518	 -0.24387	 -0.17181	  3.21645	703.44000	 21.70	
 17.006	121.937	  2.76156	  0.09112	  2.03366	  2.47575	 -0.18753	 -0.17325	  3.21800	703.39001	 21.70	
 17.001	127.699	  2.75578	 -0.01490	  2.17837	  2.35888	 -0.11479	 -0.17413	  3.21477	703.42999	 21.70	
 17.007	133.546	  2.75114	 -0.11790	  2.31924	  2.22645	 -0.03127	 -0.17180	  3.21541	703.46002	 21.70	
 17.014	139.343	  2.74771	 -0.20323	  2.44656	  2.08505	  0.06414	 -0.17054	  3.21682	703.38000	 21.70	
 16.988	145.161	  2.74423	 -0.27811	  2.55654	  1.93252	  0.16691	 -0.16787	  3.21791	703.40997	 21.70	
 16.995	150.919	  2.73910	 -0.34491	  2.65225	  1.77230	  0.27878	 -0.16735	  3.21763	703.37000	 21.70	
 16.990	156.759	  2.73378	 -0.39355	  2.73257	  1.59969	  0.41276	 -0.16083	  3.21713	703.40002	 21.70	
 17.000	162.596	  2.73275	 -0.43198	  2.79583	  1.43223	  0.55088	 -0.15563	  3.21846	703.31000	 21.70	
 17.009	168.383	  2.72849	 -0.45919	  2.83944	  1.25745	  0.69735	 -0.15218	  3.21675	703.44000	 21.70	
 16.990	174.179	  2.72900	 -0.47001	  2.86458	  1.08887	  0.85620	 -0.14530	  3.21807	703.42999	 21.70	
 18.709	174.675	  2.61725	 -0.64199	  2.94922	  1.00477	  0.77655	 -0.15861	  3.21557	703.45001	 21.70	
 18.703	169.441	  2.62110	 -0.62777	  2.92863	  1.17582	  0.62520	 -0.16614	  3.21944	703.46997	 21.70	
 18.691	164.085	  2.62472	 -0.60224	  2.88605	  1.34747	  0.47798	 -0.17252	  3.21750	703.38000	 21.70	
 18.706	158.818	  2.62694	 -0.56954	  2.83291	  1.51394	  0.34212	 -0.18012	  3.21750	703.41998	 21.70	
 18.695	153.537	  2.63263	 -0.52188	  2.75806	  1.68638	  0.21291	 -0.18671	  3.21757	703.42999	 21.70	
 18.704	148.255	  2.63425	 -0.47028	  2.66899	  1.84943	  0.09210	 -0.19187	  3.21668	703.34003	 21.70	
 18.698	142.952	  2.64058	 -0.40579	  2.57119	  2.00300	 -0.02338	 -0.19554	  3.21774	703.50000	 21.70	
 18.699	137.625	  2.64075	 -0.33202	  2.45196	  2.15552	 -0.12875	 -0.19919	  3.21543	703.46002	 21.70	
 18.705	132.343	  2.64770	 -0.24200	  2.32331	  2.29776	 -0.21488	 -0.20186	  3.21791	703.46997	 21.70	
 18.713	127.067	  2.65246	 -0.14478	  2.18578	  2.42559	 -0.29055	 -0.20550	  3.21744	703.40997	 21.70	
 18.700	121.794	  2.66017	 -0.03728	  2.03921	  2.53853	 -0.35432	 -0.20440	  3.21732	703.56000	 21.70	
 18.698	116.504	  2.66312	  0.08203	  1.88483	  2.63630	 -0.40866	 -0.20739	  3.21527	703.51001	 21.70	
 18.707	111.165	  2.67124	  0.21423	  1.72182	  2.72535	 -0.45632	 -0.20429	  3.21805	703.47998	 21.70	
 18.690	105.863	  2.67578	  0.35352	  1.55828	  2.79385	 -0.49194	 -0.20533	  3.21785	703.52002	 21.70	
 18.696	100.583	  2.68528	  0.50346	  1.39769	  2.84538	 -0.51533	 -0.20613	  3.22110	703.52002	 21.70	
 18.700	 95.309	  2.69016	  0.66096	  1.23186	  2.87686	 -0.52683	 -0.20373	  3.21823	703.51001	 21.70	
 18.700	 90.000	  2.69867	  0.82706	  1.06885	  2.89616	 -0.53194	 -0.20608	  3.22079	703.46002	 21.70	
 18.700	 84.691	  2.70091	  0.99013	  0.91071	  2.89107	 -0.52772	 -0.20800	  3.21684	703.53003	 21.70	
 18.696	 79.417	  2.70877	  1.16524	  0.75808	  2.87208	 -0.50840	 -0.20469	  3.21629	703.51001	 21.70	
 18.690	 74.137	  2.71474	  1.33641	  0.61348	  2.83660	 -0.48288	 -0.20435	  3.21765	703.53003	 21.70	
 18.707	 68.835	  2.71970	  1.51123	  0.47594	  2.78176	 -0.44390	 -0.19969	  3.21821	703.53003	 21.70	
 18.698	 63.496	  2.72188	  1.68077	  0.34502	  2.70665	 -0.39369	 -0.19768	  3.21408	703.46002	 21.70	
 18.700	 58.206	  2.72566	  1.84689	  0.22226	  2.61999	 -0.33750	 -0.19445	  3.21625	703.58002	 21.70	
 18.713	 52.933	  2.72796	  2.00412	  0.10748	  2.52215	 -0.27813	 -0.18915	  3.21839	703.48999	 21.70	
 18.705	 47.657	  2.73111	  2.15358	  0.00793	  2.40269	 -0.19504	 -0.18510	  3.21697	703.56000	 21.70	
 18.699	 42.375	  2.73509	  2.29569	 -0.08069	  2.27271	 -0.10362	 -0.18144	  3.21833	703.59003	 21.70	
 18.698	 37.048	  2.73741	  2.42172	 -0.15806	  2.12984	  0.00095	 -0.17699	  3.21758	703.58002	 21.70	
 18.704	 31.745	  2.73907	  2.53605	 -0.22982	  1.98326	  0.10803	 -0.17257	  3.21915	703.53003	 21.70	
 18.695	 26.463	  2.73820	  2.63069	 -0.28375	  1.82385	  0.23183	 -0.16759	  3.21636	703.58002	 21.70	
 18.706	 21.182	  2.74080	  2.71394	 -0.33549	  1.65930	  0.36191	 -0.16348	  3.21881	703.57001	 21.70	
 18.691	 15.915	  2.74078	  2.77765	 -0.37229	  1.49385	  0.50143	 -0.15526	  3.21777	703.53998	 21.70	
 18.703	 10.559	  2.74101	  2.82676	 -0.39875	  1.32054	  0.65404	 -0.15402	  3.21947	703.51001	 21.70	
 18.709	  5.325	  2.73710	  2.85368	 -0.41928	  1.14777	  0.81087	 -0.14810	  3.21599	703.62000	 21.70	
 18.700	  0.000	  2.74058	  2.86680	 -0.42520	  0.98424	  0.97167	 -0.14492	  3.22275	703.58002	 21.70	
 18.709	 -5.325	  2.73353	  2.85486	 -0.42391	  0.81347	  1.13716	 -0.14021	  3.21646	703.51001	 21.70	
 18.703	-10.559	  2.73055	  2.82915	 -0.40855	  0.65611	  1.30727	 -0.13683	  3.21669	703.53998	 21.70	
 18.691	-15.915	  2.72995	  2.78572	 -0.38145	  0.50548	  1.47779	 -0.13153	  3.21623	703.46997	 21.70	
 18.706	-21.182	  2.72830	  2.72566	 -0.34670	  0.35950	  1.65030	 -0.12876	  3.22029	703.65002	 21.70	
 18.695	-26.463	  2.72300	  2.64381	 -0.29813	  0.22384	  1.81661	 -0.12501	  3.21773	703.60999	 21.70	
 18.704	-31.745	  2.71843	  2.55135	 -0.24291	  0.09984	  1.97571	 -0.11929	  3.21826	703.64001	 21.70	
 18.698	-37.048	  2.71544	  2.44433	 -0.17852	 -0.01599	  2.12884	 -0.11663	  3.22200	703.59003	 21.70	
 18.699	-42.375	  2.70586	  2.31445	 -0.09852	 -0.12197	  2.27228	 -0.11246	  3.21614	703.59998	 21.70	
 18.705	-47.657	  2.70239	  2.18102	 -0.01189	 -0.21563	  2.40483	 -0.11024	  3.21886	703.63000	 21.70	
 18.713	-52.933	  2.69606	  2.03352	  0.08932	 -0.29715	  2.52545	 -0.10564	  3.21795	703.47998	 21.70	
 18.700	-58.206	  2.68866	  1.87674	  0.20023	 -0.36456	  2.62659	 -0.10464	  3.21562	703.47998	 21.70	
 18.698	-63.496	  2.68344	  1.71481	  0.31807	 -0.42627	  2.71982	 -0.09930	  3.21732	703.54999	 21.70	
 18.707	-68.835	  2.67782	  1.54609	  0.44777	 -0.47864	  2.79550	 -0.09604	  3.21866	703.53003	 21.70	
 18.690	-74.137	  2.67418	  1.37820	  0.58759	 -0.51420	  2.85297	 -0.09631	  3.22010	703.53003	 21.70	
 18.696	-79.417	  2.66565	  1.20531	  0.72958	 -0.54694	  2.89276	 -0.09166	  3.21846	703.71002	 21.70	
 18.700	-84.691	  2.65962	  1.03457	  0.88293	 -0.56565	  2.91431	 -0.09840	  3.21807	703.52002	 21.70	
 18.700	-90.000	  2.65513	  0.86445	  1.04390	 -0.57588	  2.91968	 -0.09482	  3.21808	703.59998	 21.70	
 18.700	-95.309	  2.65104	  0.70513	  1.20615	 -0.57232	  2.90930	 -0.09327	  3.22035	703.47998	 21.70	
 18.696	-100.583	  2.64327	  0.54878	  1.36885	 -0.56103	  2.87804	 -0.09300	  3.21643	703.64001	 21.70	
 18.690	-105.863	  2.64057	  0.39897	  1.53265	 -0.53931	  2.83101	 -0.08973	  3.21744	703.51001	 21.70	
 18.707	-111.165	  2.63447	  0.25442	  1.69676	 -0.51442	  2.77176	 -0.09510	  3.21743	703.53998	 21.70	
 18.698	-116.504	  2.63384	  0.12070	  1.86193	 -0.47231	  2.69073	 -0.09255	  3.22001	703.46997	 21.70	
 18.700	-121.794	  2.62846	 -0.00253	  2.01466	 -0.41917	  2.59136	 -0.10066	  3.21647	703.52002	 21.70	
 18.713	-127.067	  2.62793	 -0.11085	  2.16716	 -0.35545	  2.48388	 -0.10112	  3.22048	703.52002	 21.70	
 18.705	-132.343	  2.62215	 -0.21291	  2.30370	 -0.28484	  2.36144	 -0.10582	  3.21699	703.46997	 21.70	
 18.699	-137.625	  2.61940	 -0.30367	  2.43328	 -0.19746	  2.22280	 -0.10835	  3.21551	703.50000	 21.70	
 18.698	-142.952	  2.62152	 -0.38098	  2.55395	 -0.10294	  2.07699	 -0.11146	  3.21747	703.63000	 21.70	
 18.704	-148.255	  2.61807	 -0.44970	  2.65809	  0.00422	  1.92205	 -0.11374	  3.21728	703.53003	 21.70	
 18.695	-153.537	  2.61785	 -0.50444	  2.74676	  0.12112	  1.76462	 -0.11916	  3.21630	703.63000	 21.70	
 18.706	-158.818	  2.61988	 -0.55207	  2.82496	  0.24799	  1.59957	 -0.12476	  3.21905	703.53003	 21.70	
 18.691	-164.085	  2.61840	 -0.58869	  2.88030	  0.38510	  1.43068	 -0.13066	  3.21668	703.60999	 21.70	
 18.703	-169.441	  2.61782	 -0.61830	  2.92463	  0.52781	  1.26114	 -0.13860	  3.21753	703.65002	 21.70	
 18.709	-174.675	  2.61739	 -0.63501	  2.95022	  0.68166	  1.09396	 -0.14482	  3.21742	703.63000	 21.70	
 18.700	180.000	  2.61916	 -0.63769	  2.95899	  0.84135	  0.93319	 -0.15290	  3.21655	703.62000	 21.70	
 20.400	180.000	  2.49880	 -0.81987	  3.03047	  0.74760	  0.83972	 -0.15227	  3.21561	703.54999	 21.70	
 20.401	-175.153	  2.49799	 -0.81181	  3.02228	  0.59147	  1.00230	 -0.14833	  3.21626	703.60999	 21.70	
 20.407	-170.264	  2.49747	 -0.80095	  3.00101	  0.43577	  1.16883	 -0.13883	  3.21812	703.57001	 21.70	
 20.410	-165.423	  2.49558	 -0.77516	  2.96108	  0.29567	  1.33230	 -0.13352	  3.21675	703.64001	 21.70	
 20.392	-160.496	  2.49717	 -0.74432	  2.90947	  0.15368	  1.50445	 -0.12449	  3.21834	703.65002	 21.70	
 20.401	-155.705	  2.49416	 -0.70249	  2.83975	  0.02566	  1.66850	 -0.12090	  3.21618	703.62000	 21.70	
 20.405	-150.835	  2.49753	 -0.65292	  2.75893	 -0.08830	  1.82959	 -0.11826	  3.21766	703.65002	 21.70	
 20.397	-145.903	  2.49811	 -0.59024	  2.65897	 -0.20030	  1.99083	 -0.11128	  3.21509	703.70001	 21.70	
 20.392	-141.062	  2.49813	 -0.52229	  2.54800	 -0.30045	  2.14257	 -0.10534	  3.21581	703.65002	 21.70	
 20.396	-136.227	  2.50315	 -0.44105	  2.43058	 -0.38585	  2.28394	 -0.10481	  3.21830	703.63000	 21.70	
 20.408	-131.372	  2.50728	 -0.35242	  2.29805	 -0.46381	  2.41715	 -0.10333	  3.21946	703.75000	 21.70	
 20.410	-126.511	  2.50677	 -0.25005	  2.15387	 -0.53260	  2.53893	 -0.10111	  3.21653	703.64001	 21.70	
 20.400	-121.604	  2.51067	 -0.14056	  2.00420	 -0.59385	  2.65111	 -0.10040	  3.21896	703.65997	 21.70	
 20.403	-116.741	  2.51154	 -0.02359	  1.84722	 -0.64342	  2.74397	 -0.09211	  3.21616	703.70001	 21.70	
 20.413	-111.900	  2.51616	  0.10661	  1.68835	 -0.68105	  2.82628	 -0.08887	  3.21844	703.66998	 21.70	
 20.398	-107.004	  2.52172	  0.24765	  1.52208	 -0.71058	  2.89147	 -0.08780	  3.21613	703.71002	 21.70	
 20.394	-102.132	  2.52604	  0.39144	  1.35972	 -0.73199	  2.94004	 -0.08971	  3.21681	703.71997	 21.70	
 20.403	-97.332	  2.53165	  0.54388	  1.19719	 -0.74512	  2.97717	 -0.09533	  3.21848	703.70001	 21.70	
 20.392	-92.440	  2.53778	  0.70447	  1.03400	 -0.74765	  2.99350	 -0.09724	  3.21843	703.71002	 21.70	
 20.392	-87.560	  2.54336	  0.86862	  0.87610	 -0.74320	  2.99651	 -0.09594	  3.21819	703.81000	 21.70	
 20.403	-82.668	  2.54891	  1.03845	  0.71904	 -0.73024	  2.98492	 -0.09317	  3.21839	703.65002	 21.70	
 20.394	-77.868	  2.55530	  1.20766	  0.57147	 -0.70778	  2.95670	 -0.09612	  3.21811	703.66998	 21.70	
 20.398	-72.996	  2.55930	  1.37531	  0.43303	 -0.68012	  2.91641	 -0.09665	  3.22035	703.69000	 21.70	
 20.413	-68.100	  2.56131	  1.54324	  0.29420	 -0.64469	  2.85471	 -0.09837	  3.21757	703.60999	 21.70	
 20.403	-63.259	  2.56725	  1.71058	  0.16771	 -0.59502	  2.77742	 -0.10039	  3.21685	703.58002	 21.70	
 20.400	-58.396	  2.57302	  1.87068	  0.05197	 -0.53945	  2.69093	 -0.10380	  3.21840	703.53003	 21.70	
 20.410	-53.489	  2.58166	  2.02988	 -0.05430	 -0.46982	  2.58612	 -0.10612	  3.21886	703.54999	 21.70	
 20.408	-48.628	  2.58794	  2.18070	 -0.15378	 -0.39029	  2.46544	 -0.11079	  3.21861	703.53003	 21.70	
 20.396	-43.773	  2.59190	  2.31834	 -0.24137	 -0.30175	  2.33382	 -0.11042	  3.21727	703.42999	 21.70	
 20.392	-38.938	  2.59819	  2.44522	 -0.31747	 -0.20599	  2.19870	 -0.12057	  3.21827	703.57001	 21.70	
 20.397	-34.097	  2.60382	  2.55998	 -0.38510	 -0.09925	  2.05105	 -0.12196	  3.21701	703.54999	 21.70	
 20.405	-29.165	  2.60972	  2.66468	 -0.44347	  0.02520	  1.88879	 -0.12740	  3.21866	703.51001	 21.70	
 20.401	-24.295	  2.61094	  2.75298	 -0.49756	  0.14474	  1.72622	 -0.12969	  3.21880	703.48999	 21.70	
 20.392	-19.504	  2.61373	  2.82242	 -0.53524	  0.28225	  1.55983	 -0.13571	  3.21655	703.54999	 21.70	
 20.410	-14.577	  2.61814	  2.88102	 -0.56915	  0.42803	  1.38916	 -0.14212	  3.21870	703.65997	 21.70	
 20.407	 -9.736	  2.62113	  2.91871	 -0.58719	  0.57702	  1.22210	 -0.14484	  3.21641	703.67999	 21.70	
 20.401	 -4.847	  2.62454	  2.94504	 -0.60018	  0.73624	  1.05370	 -0.15214	  3.21900	703.65997	 21.70	
 20.400	  0.000	  2.62666	  2.95159	 -0.60476	  0.89906	  0.88891	 -0.16092	  3.21832	703.73999	 21.70	
 20.401	  4.847	  2.62907	  2.94237	 -0.60068	  1.06577	  0.72619	 -0.16829	  3.21895	703.67999	 21.70	
 20.407	  9.736	  2.62889	  2.91584	 -0.58510	  1.23560	  0.56947	 -0.17452	  3.21845	703.72998	 21.70	
 20.410	 14.577	  2.63093	  2.87426	 -0.55609	  1.40376	  0.42549	 -0.18051	  3.21834	703.73999	 21.70	
 20.392	 19.504	  2.63087	  2.81500	 -0.52411	  1.57352	  0.28238	 -0.18811	  3.21849	703.67999	 21.70	
 20.401	 24.295	  2.63001	  2.73985	 -0.48132	  1.73691	  0.15210	 -0.19277	  3.21708	703.65997	 21.70	
 20.405	 29.165	  2.63005	  2.64802	 -0.42946	  1.90036	  0.02579	 -0.19886	  3.21700	703.65002	 21.70	
 20.397	 34.097	  2.62849	  2.53898	 -0.36521	  2.05766	 -0.08870	 -0.20732	  3.21658	703.71997	 21.70	
 20.392	 38.938	  2.62523	  2.42275	 -0.29951	  2.20354	 -0.19504	 -0.21133	  3.21647	703.66998	 21.70	
 20.396	 43.773	  2.62263	  2.29374	 -0.22089	  2.34039	 -0.28771	 -0.21727	  3.21562	703.72998	 21.70	
 20.408	 48.628	  2.61984	  2.15270	 -0.13575	  2.46929	 -0.37699	 -0.22106	  3.21773	703.72998	 21.70	
 20.410	 53.489	  2.61865	  1.99930	 -0.03245	  2.58362	 -0.44836	 -0.22407	  3.21797	703.66998	 21.70	
 20.400	 58.396	  2.61678	  1.84057	  0.07700	  2.68718	 -0.51395	 -0.22579	  3.21958	703.70001	 21.70	
 20.403	 63.259	  2.60827	  1.67455	  0.19405	  2.77283	 -0.56980	 -0.22813	  3.21691	703.67999	 21.70	
 20.413	 68.100	  2.60806	  1.50620	  0.32139	  2.84727	 -0.61596	 -0.23280	  3.21924	703.64001	 21.70	
 20.398	 72.996	  2.60144	  1.33165	  0.45503	  2.90292	 -0.65538	 -0.23612	  3.21933	703.70001	 21.70	
 20.394	 77.868	  2.59637	  1.15829	  0.59783	  2.94202	 -0.68147	 -0.23427	  3.21723	703.82001	 21.70	
 20.403	 82.668	  2.59172	  0.99080	  0.74765	  2.96833	 -0.69977	 -0.23945	  3.21909	703.79999	 21.70	
 20.392	 87.560	  2.58541	  0.82281	  0.90174	  2.97610	 -0.70785	 -0.23688	  3.21669	703.83002	 21.70	
 20.392	 92.440	  2.58178	  0.66002	  1.05984	  2.97140	 -0.70818	 -0.23754	  3.21990	703.77002	 21.70	
 20.403	 97.332	  2.57505	  0.49702	  1.22455	  2.95001	 -0.70210	 -0.23414	  3.22000	703.78998	 21.70	
 20.394	102.132	  2.56832	  0.34671	  1.38605	  2.91010	 -0.68442	 -0.23440	  3.21910	703.77002	 21.70	
 20.398	107.004	  2.55938	  0.20418	  1.54579	  2.85300	 -0.66035	 -0.23518	  3.21573	703.78998	 21.60	
 20.413	111.900	  2.55165	  0.06434	  1.70985	  2.78469	 -0.62937	 -0.23483	  3.21693	703.77002	 21.70	
 20.403	116.741	  2.54829	 -0.06003	  1.86989	  2.69701	 -0.58189	 -0.23282	  3.21767	703.77002	 21.70	
 20.400	121.604	  2.54232	 -0.17779	  2.02396	  2.59631	 -0.52806	 -0.22986	  3.21837	703.73999	 21.60	
 20.410	126.511	  2.53613	 -0.28962	  2.17683	  2.48152	 -0.46969	 -0.23134	  3.21824	703.75000	 21.70	
 20.408	131.372	  2.53032	 -0.38327	  2.31621	  2.35689	 -0.39645	 -0.22459	  3.21860	703.66998	 21.70	
 20.396	136.227	  2.52543	 -0.46863	  2.44638	  2.21724	 -0.31299	 -0.22235	  3.21697	703.69000	 21.70	
 20.392	141.062	  2.52052	 -0.54702	  2.56655	  2.07030	 -0.22259	 -0.21305	  3.21755	703.76001	 21.70	
 20.397	145.903	  2.51468	 -0.61160	  2.67344	  1.91333	 -0.11940	 -0.20732	  3.21469	703.69000	 21.70	
 20.405	150.835	  2.51179	 -0.67134	  2.77160	  1.75255	 -0.00799	 -0.20082	  3.21717	703.65997	 21.70	
 20.401	155.705	  2.51013	 -0.71753	  2.85251	  1.58480	  0.11525	 -0.19685	  3.21683	703.73999	 21.70	
 20.392	160.496	  2.50801	 -0.75362	  2.91899	  1.41682	  0.24798	 -0.18860	  3.21864	703.67999	 21.70	
 20.410	165.423	  2.50484	 -0.78513	  2.97109	  1.24654	  0.38475	 -0.17749	  3.21922	703.67999	 21.70	
 20.407	170.264	  2.50190	 -0.80485	  3.00656	  1.07767	  0.53086	 -0.17532	  3.21847	703.71002	 21.70	
 20.401	175.153	  2.50006	 -0.81791	  3.02712	  0.91012	  0.68278	 -0.16243	  3.21787	703.67999	 21.70	
  0.141	 45.000	  3.21981	  1.34215	  1.52592	  1.41138	  1.42226	  0.07812	  3.21482	703.66998	 21.70	
  4.001	128.691	  3.21015	  1.05194	  1.74356	  1.65778	  1.10801	  0.05647	  3.21758	703.69000	 21.70	
  4.002	 76.995	  3.21860	  1.37058	  1.42230	  1.75317	  1.05188	  0.07006	  3.21762	703.65002	 21.70	
  4.002	 25.892	  3.22183	  1.65202	  1.18589	  1.54165	  1.24338	  0.07456	  3.21969	703.70001	 21.70	
  4.002	-25.892	  3.21930	  1.65110	  1.18427	  1.21297	  1.56662	  0.06198	  3.21844	703.67999	 21.70	
  4.002	-76.995	  3.21347	  1.37547	  1.41903	  1.01334	  1.78464	  0.04617	  3.21813	703.72998	 21.70	
  4.001	-128.691	  3.20815	  1.05702	  1.74176	  1.05987	  1.70160	  0.03819	  3.21985	703.76001	 21.70	
  4.000	180.000	  3.20478	  0.92667	  1.89248	  1.33860	  1.38782	  0.04281	  3.21757	703.79999	 21.70	
  8.000	180.000	  3.12566	  0.47459	  2.25473	  1.24951	  1.31173	 -0.01331	  3.21582	703.75000	 21.70	
  7.991	-152.370	  3.12681	  0.55971	  2.15480	  0.90058	  1.69401	 -0.01784	  3.21762	703.88000	 21.70	
  7.997	-124.550	  3.13059	  0.78625	  1.88478	  0.65740	  2.00379	 -0.01768	  3.21638	703.73999	 21.70	
  8.006	-96.837	  3.13999	  1.12848	  1.52190	  0.55598	  2.16380	 -0.01819	  3.21824	703.70001	 21.70	
  7.988	-69.228	  3.14940	  1.51222	  1.16013	  0.60588	  2.11573	 -0.01017	  3.21689	703.76001	 21.70	
  7.997	-41.563	  3.16453	  1.85287	  0.88184	  0.80732	  1.88382	  0.00249	  3.22068	703.72998	 21.70	
  8.008	-13.821	  3.17206	  2.05056	  0.73091	  1.12602	  1.52964	  0.01833	  3.22018	703.66998	 21.70	
  8.008	 13.821	  3.17630	  2.04793	  0.73020	  1.50798	  1.14772	  0.03360	  3.21923	703.72998	 21.70	
  7.997	 41.563	  3.17237	  1.84334	  0.88045	  1.86364	  0.82702	  0.03225	  3.21770	703.73999	 21.70	
  7.988	 69.228	  3.16997	  1.49949	  1.16827	  2.08794	  0.64395	  0.02740	  3.21940	703.70001	 21.70	
  8.006	 96.837	  3.15634	  1.10913	  1.52889	  2.12563	  0.59546	  0.01800	  3.21770	703.65997	 21.70	
  7.997	124.550	  3.14630	  0.76883	  1.89455	  1.95826	  0.70957	  0.00436	  3.21991	703.65002	 21.70	
  7.991	152.370	  3.13490	  0.54992	  2.15749	  1.63949	  0.95976	 -0.00787	  3.21833	703.78003	 21.70	
 12.009	161.059	  2.99250	  0.07566	  2.50171	  1.52657	  0.82726	 -0.08011	  3.21855	703.79999	 21.70	
 12.013	142.081	  3.00072	  0.22136	  2.30079	  1.90723	  0.51717	 -0.07028	  3.21729	703.63000	 21.70	
 12.006	123.113	  3.00970	  0.46650	  1.98956	  2.21667	  0.29434	 -0.06840	  3.21491	703.70001	 21.70	
 12.007	104.200	  3.02536	  0.79785	  1.62030	  2.41076	  0.17682	 -0.05607	  3.21632	703.64001	 21.70	
 11.989	 85.301	  3.04131	  1.18731	  1.23688	  2.46389	  0.15583	 -0.04827	  3.21780	703.70001	 21.70	
 12.013	 66.294	  3.05138	  1.59549	  0.87391	  2.37294	  0.22866	 -0.04407	  3.21921	703.72998	 21.70	
 12.012	 47.388	  3.06170	  1.96561	  0.58540	  2.14503	  0.41036	 -0.03506	  3.22079	703.73999	 21.70	
 11.990	 28.440	  3.06467	  2.24554	  0.38430	  1.81105	  0.68648	 -0.02975	  3.22032	703.75000	 21.60	
 11.991	  9.464	  3.06420	  2.39442	  0.28351	  1.42057	  1.03738	 -0.03184	  3.21895	703.65002	 21.60	
 11.991	 -9.464	  3.05983	  2.39770	  0.28066	  1.02638	  1.42701	 -0.04698	  3.21821	703.63000	 21.70	
 11.990	-28.440	  3.05190	  2.25427	  0.38008	  0.66945	  1.81923	 -0.05545	  3.21786	703.64001	 21.70	
 12.012	-47.388	  3.03825	  1.98113	  0.57433	  0.38445	  2.15865	 -0.06600	  3.21767	703.59998	 21.70	
 12.013	-66.294	  3.02607	  1.62023	  0.86182	  0.20004	  2.39246	 -0.06596	  3.21986	703.70001	 21.70	
 11.989	-85.301	  3.01269	  1.21415	  1.21954	  0.11594	  2.49242	 -0.06813	  3.21707	703.63000	 21.60	
 12.007	-104.200	  3.00015	  0.82796	  1.60597	  0.12664	  2.45138	 -0.07156	  3.21797	703.64001	 21.60	
 12.006	-123.113	  2.99201	  0.49372	  1.97789	  0.24071	  2.26499	 -0.07063	  3.21752	703.67999	 21.70	
 12.013	-142.081	  2.98577	  0.24239	  2.29001	  0.45027	  1.97012	 -0.07435	  3.21897	703.59998	 21.60	
 12.009	-161.059	  2.98222	  0.08625	  2.49538	  0.75167	  1.59504	 -0.07881	  3.21724	703.46997	 21.60	
 16.000	180.000	  2.78784	 -0.38125	  2.82322	  0.96392	  1.04859	 -0.13045	  3.21994	703.60999	 21.70	
 15.990	-165.604	  2.78367	 -0.33580	  2.76194	  0.59576	  1.44497	 -0.12060	  3.21543	703.59998	 21.70	
 16.002	-151.165	  2.78402	 -0.23287	  2.60582	  0.27279	  1.83802	 -0.10754	  3.21792	703.70001	 21.60	
 16.002	-136.836	  2.78826	 -0.05734	  2.35035	  0.02369	  2.18503	 -0.09671	  3.21736	703.78003	 21.60	
 15.995	-122.439	  2.79285	  0.19029	  2.02372	 -0.16156	  2.47557	 -0.09016	  3.21857	703.70001	 21.70	
 15.993	-107.966	  2.80311	  0.51134	  1.64649	 -0.26800	  2.67131	 -0.08604	  3.21844	703.71997	 21.70	
 16.005	-93.629	  2.81374	  0.87652	  1.25696	 -0.31217	  2.76430	 -0.08642	  3.21867	703.53003	 21.70	
 15.992	-79.234	  2.82738	  1.27638	  0.88359	 -0.28326	  2.74270	 -0.08660	  3.21806	703.58002	 21.60	
 16.009	-64.774	  2.83847	  1.67747	  0.54773	 -0.18909	  2.61160	 -0.09219	  3.21741	703.59003	 21.70	
 15.997	-50.364	  2.85214	  2.05122	  0.26548	 -0.02270	  2.37590	 -0.09749	  3.21715	703.65997	 21.70	
 15.997	-36.045	  2.86585	  2.35959	  0.05437	  0.21618	  2.05849	 -0.10617	  3.21912	703.60999	 21.60	
 16.000	-21.597	  2.87501	  2.57857	 -0.08684	  0.52472	  1.68182	 -0.11182	  3.21724	703.64001	 21.70	
 16.003	 -7.169	  2.88354	  2.69069	 -0.15342	  0.89030	  1.28358	 -0.10943	  3.21766	703.64001	 21.60	
 16.003	  7.169	  2.88653	  2.68508	 -0.14723	  1.28328	  0.89428	 -0.10499	  3.21587	703.76001	 21.70	
 16.000	 21.597	  2.89173	  2.57001	 -0.07249	  1.68549	  0.54011	 -0.10660	  3.21997	703.48999	 21.70	
 15.997	 36.045	  2.88868	  2.34239	  0.07067	  2.06056	  0.23609	 -0.11342	  3.21991	703.59998	 21.60	
 15.997	 50.364	  2.88204	  2.02629	  0.28598	  2.36787	  0.00597	 -0.12102	  3.21590	703.64001	 21.60	
 16.009	 64.774	  2.87306	  1.64679	  0.56763	  2.59983	 -0.16083	 -0.13108	  3.21737	703.58002	 21.60	
 15.992	 79.234	  2.86413	  1.24057	  0.90701	  2.72298	 -0.24846	 -0.13840	  3.21847	703.69000	 21.60	
 16.005	 93.629	  2.84910	  0.84039	  1.27998	  2.73274	 -0.26719	 -0.13783	  3.21729	703.53003	 21.60	
 15.993	107.966	  2.83312	  0.47456	  1.66793	  2.63259	 -0.21733	 -0.14225	  3.21762	703.62000	 21.70	
 15.995	122.439	  2.82192	  0.16183	  2.04501	  2.42156	 -0.09278	 -0.15027	  3.21850	703.67999	 21.70	
 16.002	136.836	  2.80898	 -0.07771	  2.36757	  2.12297	  0.10030	 -0.14947	  3.21781	703.52002	 21.60	
 16.002	151.165	  2.80052	 -0.25026	  2.61773	  1.76229	  0.35737	 -0.14644	  3.21984	703.42999	 21.60	
 15.990	165.604	  2.79432	 -0.34851	  2.77160	  1.36264	  0.68099	 -0.13553	  3.21963	703.54999	 21.60	
 20.003	168.362	  2.53474	 -0.75611	  2.98025	  1.16170	  0.49923	 -0.17559	  3.21888	703.54999	 21.60	
 20.008	156.764	  2.53817	 -0.68265	  2.85508	  1.55709	  0.17831	 -0.19262	  3.21710	703.59003	 21.60	
 20.000	145.147	  2.55019	 -0.55856	  2.65147	  1.94146	 -0.09522	 -0.20597	  3.21821	703.50000	 21.60	
 19.995	133.545	  2.55968	 -0.38251	  2.37383	  2.28953	 -0.31685	 -0.21906	  3.21872	703.54999	 21.70	
 20.009	121.926	  2.57090	 -0.14973	  2.03994	  2.57713	 -0.48354	 -0.22698	  3.21848	703.56000	 21.60	
 20.005	110.327	  2.58500	  0.13964	  1.67046	  2.79123	 -0.59489	 -0.22771	  3.21809	703.59998	 21.60	
 19.989	 98.733	  2.59989	  0.47837	  1.28749	  2.91958	 -0.65491	 -0.23142	  3.21787	703.57001	 21.70	
 19.999	 87.075	  2.61204	  0.85574	  0.90865	  2.95742	 -0.66643	 -0.22889	  3.21753	703.48999	 21.60	
 19.992	 75.457	  2.62432	  1.25621	  0.55585	  2.90587	 -0.62809	 -0.23085	  3.21632	703.59998	 21.70	
 20.009	 63.844	  2.63478	  1.65741	  0.24128	  2.76774	 -0.53685	 -0.22392	  3.21636	703.63000	 21.60	
 19.989	 52.269	  2.64936	  2.03711	 -0.01819	  2.54670	 -0.38712	 -0.21440	  3.21985	703.58002	 21.60	
 19.999	 40.602	  2.65014	  2.37125	 -0.23432	  2.24553	 -0.18995	 -0.20723	  3.21614	703.53003	 21.60	
 20.004	 29.051	  2.65444	  2.63612	 -0.39090	  1.89923	  0.06178	 -0.19244	  3.21707	703.47998	 21.70	
 20.005	 17.433	  2.65627	  2.82363	 -0.49562	  1.51148	  0.37150	 -0.17734	  3.21667	703.46997	 21.60	
 20.006	  5.780	  2.65487	  2.91795	 -0.55045	  1.11350	  0.72446	 -0.16754	  3.21673	703.44000	 21.70	
 20.006	 -5.780	  2.65251	  2.92186	 -0.55461	  0.73083	  1.10158	 -0.14816	  3.21856	703.48999	 21.60	
 20.005	-17.433	  2.64427	  2.83286	 -0.50716	  0.37155	  1.49724	 -0.13626	  3.21880	703.58002	 21.60	
 20.004	-29.051	  2.63662	  2.65344	 -0.40463	  0.05942	  1.88672	 -0.12615	  3.21855	703.50000	 21.60	
 19.999	-40.602	  2.62564	  2.39518	 -0.25377	 -0.20392	  2.24414	 -0.11383	  3.22023	703.58002	 21.60	
 19.989	-52.269	  2.61084	  2.06541	 -0.04020	 -0.40828	  2.54306	 -0.10930	  3.21664	703.58002	 21.60	
 20.009	-63.844	  2.59172	  1.69241	  0.21829	 -0.55995	  2.77315	 -0.09610	  3.21429	703.58002	 21.60	
 19.992	-75.457	  2.58308	  1.30065	  0.53159	 -0.65137	  2.91897	 -0.09669	  3.21749	703.59998	 21.60	
 19.999	-87.075	  2.57053	  0.90388	  0.88226	 -0.70139	  2.98026	 -0.09390	  3.21831	703.59003	 21.60	
 19.989	-98.733	  2.55975	  0.52568	  1.26113	 -0.69855	  2.95067	 -0.09088	  3.21990	703.51001	 21.60	
 20.005	-110.327	  2.54560	  0.18237	  1.64396	 -0.65057	  2.83530	 -0.08964	  3.21718	703.53998	 21.60	
 20.009	-121.926	  2.53765	 -0.11214	  2.01543	 -0.54639	  2.63179	 -0.09745	  3.21724	703.51001	 21.60	
 19.995	-133.545	  2.53166	 -0.35654	  2.35394	 -0.39171	  2.35055	 -0.10149	  3.21728	703.42999	 21.60	
 20.000	-145.147	  2.52485	 -0.53958	  2.63127	 -0.17756	  2.01559	 -0.11445	  3.21399	703.44000	 21.60	
 20.008	-156.764	  2.52346	 -0.66838	  2.84155	  0.08870	  1.64187	 -0.12862	  3.21375	703.54999	 21.60	
 20.003	-168.362	  2.52596	 -0.74914	  2.97185	  0.40971	  1.24784	 -0.14084	  3.21761	703.40997	 21.60	
 20.000	180.000	  2.52981	 -0.77467	  3.01591	  0.77484	  0.86274	 -0.15769	  3.21891	703.53003	 21.60	
