FileType=PCF
NHL=14
Date=03/15/19	10:39:41
Facility=APL
Serial=16071-2
Customer=NASA
NP=6
Mach=0.036000
Calibration=1:1
CalPts=490
TstPts=95
PortNumbering=AP Standard
Units=Torr C m/s kg/m^3 deg mm 
Theta[deg]	Phi[deg]	P1[Torr]	P2[Torr]	P3[Torr]	P4[Torr]	P5[Torr]	P6[Torr]	Pt[Torr]	Ps[Abs,Torr]	Ts[C]	
  0.000	  0.000	  0.65804	  0.28986	  0.32081	  0.30522	  0.30369	  0.04626	  0.65857	703.53003	 21.40	
  1.691	128.401	  0.66150	  0.27029	  0.34257	  0.32771	  0.27972	  0.04592	  0.66147	703.45001	 21.40	
  1.692	 77.194	  0.65674	  0.29204	  0.31449	  0.33247	  0.27457	  0.04941	  0.65666	703.52002	 21.40	
  1.699	 26.182	  0.66554	  0.31689	  0.30105	  0.31995	  0.29215	  0.04925	  0.66616	703.46002	 21.40	
  1.699	-26.182	  0.66123	  0.31502	  0.29830	  0.29358	  0.31795	  0.04636	  0.66038	703.47998	 21.40	
  1.692	-77.194	  0.65849	  0.29442	  0.31637	  0.27655	  0.33397	  0.04327	  0.65789	703.53998	 21.40	
  1.691	-128.401	  0.65712	  0.26947	  0.34090	  0.27955	  0.32647	  0.04239	  0.65642	703.53003	 21.40	
  1.700	180.000	  0.65830	  0.25841	  0.35337	  0.30236	  0.30179	  0.04401	  0.65882	703.56000	 21.40	
  3.400	180.000	  0.66039	  0.22476	  0.38901	  0.29971	  0.30100	  0.03979	  0.66341	703.45001	 21.40	
  3.388	-152.325	  0.65828	  0.23188	  0.37948	  0.26997	  0.33096	  0.03885	  0.66035	703.59003	 21.40	
  3.397	-124.529	  0.65793	  0.25096	  0.35750	  0.25038	  0.35507	  0.03634	  0.66082	703.51001	 21.40	
  3.399	-96.763	  0.65489	  0.27652	  0.32647	  0.24131	  0.36520	  0.03801	  0.65647	703.56000	 21.40	
  3.394	-69.283	  0.65773	  0.30784	  0.29911	  0.24580	  0.36274	  0.04006	  0.65883	703.58002	 21.40	
  3.400	-41.398	  0.65634	  0.33302	  0.27636	  0.26147	  0.34396	  0.04264	  0.65752	703.64001	 21.40	
  3.401	-14.021	  0.66128	  0.35019	  0.26461	  0.28849	  0.31691	  0.04594	  0.66134	703.66998	 21.40	
  3.401	 14.021	  0.66362	  0.35070	  0.26535	  0.31889	  0.28736	  0.04584	  0.66511	703.60999	 21.40	
  3.400	 41.398	  0.65462	  0.33150	  0.27256	  0.34279	  0.25726	  0.04803	  0.65486	703.67999	 21.40	
  3.394	 69.283	  0.65415	  0.30431	  0.29632	  0.36165	  0.24210	  0.04917	  0.65497	703.56000	 21.40	
  3.399	 96.763	  0.65729	  0.27499	  0.32764	  0.36654	  0.23919	  0.04915	  0.65845	703.62000	 21.40	
  3.397	124.529	  0.65486	  0.24748	  0.35584	  0.35252	  0.24828	  0.04571	  0.65614	703.56000	 21.40	
  3.388	152.325	  0.65666	  0.22987	  0.37954	  0.32852	  0.27001	  0.04514	  0.65926	703.54999	 21.40	
  5.099	161.165	  0.65265	  0.19234	  0.41244	  0.32550	  0.26396	  0.03854	  0.65807	703.59003	 21.40	
  5.109	142.013	  0.65441	  0.20470	  0.39671	  0.35664	  0.23693	  0.04003	  0.65998	703.63000	 21.40	
  5.095	123.033	  0.65318	  0.22577	  0.37067	  0.38080	  0.21650	  0.04362	  0.65800	703.65002	 21.40	
  5.105	104.191	  0.65729	  0.25604	  0.34157	  0.39771	  0.20666	  0.04671	  0.66208	703.58002	 21.40	
  5.093	 85.207	  0.65814	  0.28763	  0.30983	  0.40243	  0.20497	  0.04679	  0.66124	703.59998	 21.40	
  5.104	 66.290	  0.65987	  0.32048	  0.28056	  0.39582	  0.21238	  0.04760	  0.66322	703.50000	 21.40	
  5.094	 47.331	  0.65766	  0.34928	  0.25318	  0.37505	  0.22707	  0.04723	  0.65958	703.50000	 21.40	
  5.089	 28.397	  0.65824	  0.37050	  0.23673	  0.34728	  0.25179	  0.04559	  0.65980	703.67999	 21.40	
  5.096	  9.576	  0.65325	  0.38053	  0.22702	  0.31477	  0.27923	  0.04335	  0.65486	703.58002	 21.40	
  5.096	 -9.576	  0.65895	  0.38509	  0.22908	  0.28460	  0.31372	  0.04135	  0.66194	703.58002	 21.40	
  5.089	-28.397	  0.65365	  0.37067	  0.23653	  0.25355	  0.34318	  0.03738	  0.65618	703.60999	 21.40	
  5.094	-47.331	  0.65541	  0.34976	  0.25472	  0.23049	  0.37149	  0.03546	  0.65903	703.57001	 21.40	
  5.104	-66.290	  0.65298	  0.32042	  0.27863	  0.21405	  0.38912	  0.03214	  0.65799	703.70001	 21.40	
  5.093	-85.207	  0.65620	  0.28949	  0.30964	  0.20759	  0.39964	  0.03009	  0.66023	703.59003	 21.40	
  5.105	-104.191	  0.65541	  0.25798	  0.34040	  0.20927	  0.39531	  0.03048	  0.66061	703.65997	 21.40	
  5.095	-123.033	  0.65648	  0.23059	  0.37157	  0.21842	  0.38260	  0.03083	  0.66228	703.54999	 21.40	
  5.109	-142.013	  0.65614	  0.20763	  0.39696	  0.23649	  0.35915	  0.03109	  0.66222	703.66998	 21.40	
  5.099	-161.165	  0.65249	  0.19240	  0.41215	  0.26224	  0.32676	  0.03278	  0.65836	703.60999	 21.40	
  5.100	180.000	  0.65635	  0.18916	  0.41989	  0.29472	  0.29583	  0.03538	  0.66250	703.62000	 21.30	
  6.800	180.000	  0.64649	  0.15218	  0.44697	  0.28739	  0.28843	  0.02939	  0.65897	703.52002	 21.30	
  6.796	-166.229	  0.64745	  0.15540	  0.44394	  0.25594	  0.32006	  0.02656	  0.65936	703.51001	 21.30	
  6.808	-152.311	  0.64673	  0.16528	  0.43193	  0.22668	  0.35269	  0.02415	  0.65876	703.54999	 21.30	
  6.795	-138.383	  0.64967	  0.18223	  0.41350	  0.20563	  0.38145	  0.02258	  0.66176	703.48999	 21.30	
  6.792	-124.591	  0.64446	  0.20331	  0.38517	  0.18685	  0.40062	  0.02027	  0.65591	703.53998	 21.30	
  6.787	-110.754	  0.65032	  0.23082	  0.35912	  0.17645	  0.42082	  0.02092	  0.66224	703.59998	 21.30	
  6.800	-96.985	  0.65036	  0.26052	  0.32740	  0.16996	  0.42956	  0.02189	  0.66101	703.46002	 21.30	
  6.800	-83.015	  0.65265	  0.29333	  0.29798	  0.17211	  0.43162	  0.02446	  0.66291	703.58002	 21.30	
  6.787	-69.246	  0.65496	  0.32525	  0.26909	  0.17885	  0.42390	  0.02473	  0.66267	703.60999	 21.30	
  6.792	-55.409	  0.64793	  0.35246	  0.24000	  0.19085	  0.40327	  0.02611	  0.65722	703.58002	 21.30	
  6.795	-41.617	  0.65648	  0.38198	  0.22111	  0.21100	  0.38621	  0.02843	  0.66395	703.64001	 21.30	
  6.808	-27.689	  0.64629	  0.39669	  0.20263	  0.23293	  0.35282	  0.03202	  0.65473	703.50000	 21.30	
  6.796	-13.771	  0.64883	  0.40996	  0.19334	  0.26263	  0.32247	  0.03499	  0.65666	703.50000	 21.30	
  6.800	  0.000	  0.65091	  0.41435	  0.19088	  0.29344	  0.29054	  0.03775	  0.65678	703.57001	 21.30	
  6.796	 13.771	  0.65515	  0.41342	  0.19362	  0.32691	  0.26163	  0.03830	  0.66136	703.56000	 21.30	
  6.808	 27.689	  0.65026	  0.39753	  0.20244	  0.35662	  0.23126	  0.04103	  0.65775	703.53998	 21.30	
  6.795	 41.617	  0.65605	  0.37976	  0.22028	  0.38738	  0.20864	  0.04228	  0.66329	703.63000	 21.30	
  6.792	 55.409	  0.65448	  0.35243	  0.24001	  0.40920	  0.18900	  0.04335	  0.66243	703.54999	 21.30	
  6.787	 69.246	  0.65255	  0.32085	  0.26558	  0.42325	  0.17547	  0.04364	  0.65959	703.52002	 21.30	
  6.800	 83.015	  0.65700	  0.29043	  0.29785	  0.43420	  0.16999	  0.04347	  0.66542	703.54999	 21.30	
  6.800	 96.985	  0.64601	  0.25418	  0.32466	  0.42723	  0.16722	  0.04385	  0.65342	703.54999	 21.30	
  6.787	110.754	  0.65082	  0.22799	  0.35923	  0.42148	  0.17584	  0.04180	  0.65966	703.57001	 21.30	
  6.792	124.591	  0.64938	  0.19983	  0.38734	  0.40361	  0.18644	  0.03826	  0.65941	703.59998	 21.30	
  6.795	138.383	  0.64704	  0.17817	  0.41113	  0.37919	  0.20348	  0.03657	  0.65861	703.60999	 21.30	
  6.808	152.311	  0.64908	  0.16290	  0.43212	  0.35087	  0.22994	  0.03295	  0.66075	703.65002	 21.30	
  6.796	166.229	  0.64589	  0.15342	  0.44316	  0.31802	  0.25707	  0.03051	  0.65679	703.63000	 21.30	
  8.491	168.704	  0.64062	  0.11662	  0.47426	  0.31103	  0.25011	  0.02098	  0.65947	703.53998	 21.30	
  8.502	157.493	  0.64056	  0.12388	  0.46401	  0.34476	  0.22051	  0.02362	  0.66051	703.51001	 21.30	
  8.494	146.194	  0.63750	  0.13602	  0.44453	  0.37429	  0.19262	  0.02786	  0.65686	703.63000	 21.30	
  8.495	135.039	  0.63767	  0.15437	  0.42223	  0.40122	  0.17107	  0.03154	  0.65669	703.51001	 21.40	
  8.487	123.723	  0.64242	  0.17675	  0.39871	  0.42771	  0.15417	  0.03232	  0.66161	703.57001	 21.30	
  8.492	112.575	  0.64346	  0.20275	  0.36955	  0.44624	  0.14189	  0.03500	  0.66153	703.64001	 21.30	
  8.510	101.220	  0.64413	  0.23349	  0.33710	  0.45785	  0.13454	  0.03749	  0.66142	703.59003	 21.30	
  8.500	 90.000	  0.64650	  0.26631	  0.30616	  0.46286	  0.13100	  0.03857	  0.66146	703.54999	 21.30	
  8.510	 78.780	  0.64648	  0.29856	  0.27342	  0.45976	  0.13521	  0.03786	  0.66044	703.73999	 21.30	
  8.492	 67.425	  0.64402	  0.33173	  0.24326	  0.44833	  0.14312	  0.03999	  0.65798	703.63000	 21.30	
  8.487	 56.277	  0.64464	  0.36210	  0.21738	  0.43252	  0.15508	  0.03936	  0.65832	703.62000	 21.30	
  8.495	 44.961	  0.64479	  0.39008	  0.19450	  0.41060	  0.17331	  0.03810	  0.65823	703.60999	 21.30	
  8.494	 33.806	  0.64471	  0.41287	  0.17707	  0.38352	  0.19553	  0.03749	  0.65693	703.59003	 21.30	
  8.502	 22.507	  0.64550	  0.43155	  0.16482	  0.35358	  0.22327	  0.03626	  0.65859	703.62000	 21.30	
  8.491	 11.296	  0.64628	  0.44305	  0.15733	  0.32182	  0.25380	  0.03461	  0.65918	703.65997	 21.30	
  8.500	  0.000	  0.64923	  0.44835	  0.15542	  0.29026	  0.28560	  0.02997	  0.66175	703.67999	 21.30	
  8.491	-11.296	  0.64586	  0.44240	  0.15752	  0.25642	  0.31744	  0.02822	  0.65898	703.65002	 21.30	
  8.502	-22.507	  0.64877	  0.43495	  0.16530	  0.22772	  0.35117	  0.02748	  0.66248	703.63000	 21.30	
  8.494	-33.806	  0.65000	  0.41897	  0.18006	  0.20117	  0.38358	  0.02401	  0.66346	703.69000	 21.30	
  8.495	-44.961	  0.64237	  0.39206	  0.19568	  0.17820	  0.40459	  0.01965	  0.65680	703.70001	 21.30	
  8.487	-56.277	  0.64772	  0.36687	  0.21966	  0.15969	  0.43074	  0.01745	  0.66277	703.66998	 21.30	
  8.492	-67.425	  0.64127	  0.33394	  0.24363	  0.14609	  0.44470	  0.01830	  0.65741	703.73999	 21.30	
  8.510	-78.780	  0.64328	  0.30159	  0.27463	  0.13725	  0.45713	  0.01539	  0.65998	703.73999	 21.30	
  8.500	-90.000	  0.64094	  0.26916	  0.30408	  0.13430	  0.45869	  0.01380	  0.65850	703.71997	 21.30	
  8.510	-101.220	  0.64242	  0.23831	  0.33727	  0.13489	  0.45701	  0.01327	  0.66112	703.71997	 21.30	
  8.492	-112.575	  0.64066	  0.20721	  0.36911	  0.14189	  0.44564	  0.01250	  0.66041	703.71997	 21.30	
  8.487	-123.723	  0.63963	  0.18067	  0.39756	  0.15356	  0.42710	  0.01367	  0.66067	703.71002	 21.30	
  8.495	-135.039	  0.64204	  0.15871	  0.42652	  0.17156	  0.40588	  0.01647	  0.66318	703.66998	 21.30	
  8.494	-146.194	  0.63880	  0.13946	  0.44629	  0.19164	  0.37712	  0.01625	  0.65995	703.65002	 21.30	
  8.502	-157.493	  0.63716	  0.12464	  0.46288	  0.21644	  0.34639	  0.01738	  0.65829	703.70001	 21.30	
  8.491	-168.704	  0.64120	  0.11718	  0.47540	  0.24722	  0.31490	  0.01913	  0.66223	703.53998	 21.30	
  8.500	180.000	  0.63982	  0.11451	  0.47822	  0.27922	  0.28157	  0.01988	  0.65966	703.53003	 21.30	
 10.200	180.000	  0.62658	  0.07809	  0.50261	  0.26897	  0.27220	  0.01324	  0.65786	703.67999	 21.30	
 10.191	-170.497	  0.62931	  0.08159	  0.50215	  0.23699	  0.30644	  0.00998	  0.66065	703.63000	 21.30	
 10.210	-161.034	  0.63322	  0.08745	  0.49595	  0.20763	  0.34171	  0.00587	  0.66532	703.63000	 21.30	
 10.194	-151.526	  0.62902	  0.09973	  0.47820	  0.18007	  0.37179	  0.00658	  0.66051	703.73999	 21.30	
 10.190	-142.105	  0.62584	  0.11455	  0.45544	  0.15650	  0.39826	  0.00300	  0.65558	703.65997	 21.30	
 10.215	-132.646	  0.63193	  0.13483	  0.43583	  0.13564	  0.43042	  0.00359	  0.66260	703.64001	 21.30	
 10.203	-123.092	  0.62764	  0.15727	  0.40534	  0.11908	  0.44911	  0.00107	  0.65766	703.72998	 21.30	
 10.192	-113.678	  0.62825	  0.18327	  0.37535	  0.10789	  0.46554	 -0.00051	  0.65776	703.59003	 21.30	
 10.208	-104.249	  0.62791	  0.21140	  0.34437	  0.09980	  0.47784	  0.00206	  0.65659	703.58002	 21.30	
 10.210	-94.801	  0.63529	  0.24528	  0.31469	  0.09724	  0.48972	  0.00211	  0.66266	703.58002	 21.30	
 10.210	-85.199	  0.63195	  0.27692	  0.28109	  0.09806	  0.48610	  0.00422	  0.65793	703.71002	 21.30	
 10.208	-75.751	  0.63557	  0.31034	  0.25222	  0.10311	  0.48292	  0.00408	  0.66242	703.59003	 21.30	
 10.192	-66.322	  0.62977	  0.34058	  0.22128	  0.11130	  0.46816	  0.00397	  0.65587	703.71997	 21.30	
 10.203	-56.908	  0.63611	  0.37501	  0.19605	  0.12413	  0.45498	  0.00502	  0.66078	703.78998	 21.30	
 10.215	-47.354	  0.63502	  0.40255	  0.17278	  0.14206	  0.43188	  0.00646	  0.65921	703.67999	 21.30	
 10.190	-37.895	  0.63465	  0.42690	  0.15404	  0.16509	  0.40401	  0.01243	  0.65792	703.66998	 21.30	
 10.194	-28.474	  0.63348	  0.44532	  0.13873	  0.18949	  0.37395	  0.01604	  0.65549	703.63000	 21.30	
 10.210	-18.966	  0.63434	  0.46075	  0.12742	  0.21645	  0.34323	  0.01682	  0.65575	703.78998	 21.30	
 10.191	 -9.503	  0.63694	  0.47027	  0.12227	  0.24830	  0.31024	  0.01846	  0.65885	703.71002	 21.30	
 10.200	  0.000	  0.63768	  0.47477	  0.11788	  0.28079	  0.27757	  0.02164	  0.65882	703.73999	 21.30	
 10.191	  9.503	  0.63796	  0.47085	  0.12177	  0.31381	  0.24526	  0.02493	  0.65888	703.81000	 21.30	
 10.210	 18.966	  0.63506	  0.46090	  0.12683	  0.34578	  0.21360	  0.02810	  0.65654	703.75000	 21.30	
 10.194	 28.474	  0.64155	  0.44932	  0.13908	  0.38157	  0.18745	  0.02960	  0.66247	703.76001	 21.30	
 10.190	 37.895	  0.63928	  0.42688	  0.15391	  0.40947	  0.16187	  0.03095	  0.66115	703.67999	 21.30	
 10.215	 47.354	  0.63524	  0.39991	  0.17199	  0.43405	  0.14045	  0.03178	  0.65746	703.77002	 21.30	
 10.203	 56.908	  0.63543	  0.37128	  0.19485	  0.45587	  0.12244	  0.03397	  0.65834	703.71997	 21.30	
 10.192	 66.322	  0.63684	  0.34041	  0.22096	  0.47362	  0.10931	  0.03328	  0.66016	703.73999	 21.30	
 10.208	 75.751	  0.63679	  0.30691	  0.24967	  0.48581	  0.10028	  0.03247	  0.66017	703.78003	 21.30	
 10.210	 85.199	  0.63348	  0.27293	  0.27984	  0.48921	  0.09558	  0.03286	  0.65778	703.66998	 21.30	
 10.210	 94.801	  0.63326	  0.23917	  0.31234	  0.48783	  0.09492	  0.03133	  0.65808	703.71002	 21.30	
 10.208	104.249	  0.63739	  0.20894	  0.34786	  0.48358	  0.10021	  0.02884	  0.66242	703.66998	 21.30	
 10.192	113.678	  0.62920	  0.17742	  0.37584	  0.46472	  0.10753	  0.02764	  0.65525	703.71002	 21.30	
 10.203	123.092	  0.63066	  0.15114	  0.40823	  0.44845	  0.12036	  0.02409	  0.65865	703.71002	 21.30	
 10.215	132.646	  0.63588	  0.12823	  0.43947	  0.42810	  0.13701	  0.02279	  0.66611	703.69000	 21.30	
 10.190	142.105	  0.63007	  0.11007	  0.45771	  0.39515	  0.15919	  0.01772	  0.65894	703.69000	 21.30	
 10.194	151.526	  0.63111	  0.09617	  0.47941	  0.36709	  0.18411	  0.01728	  0.66288	703.77002	 21.30	
 10.210	161.034	  0.62915	  0.08573	  0.49288	  0.33449	  0.21114	  0.01484	  0.66000	703.73999	 21.30	
 10.191	170.497	  0.62931	  0.07991	  0.50209	  0.30070	  0.24165	  0.01216	  0.66093	703.67999	 21.30	
 11.899	171.783	  0.61802	  0.04442	  0.52834	  0.29249	  0.23037	  0.00474	  0.66186	703.70001	 21.30	
 11.890	163.610	  0.61631	  0.04831	  0.51940	  0.32522	  0.20008	  0.00516	  0.65965	703.79999	 21.30	
 11.889	155.445	  0.61640	  0.05811	  0.50436	  0.35852	  0.17114	  0.00728	  0.65843	703.85999	 21.30	
 11.909	147.299	  0.61336	  0.06878	  0.48521	  0.38682	  0.14426	  0.00582	  0.65615	703.69000	 21.30	
 11.902	139.148	  0.61702	  0.08447	  0.46787	  0.41940	  0.12246	  0.00998	  0.65928	703.70001	 21.30	
 11.894	130.867	  0.61902	  0.10453	  0.44302	  0.44657	  0.10350	  0.01302	  0.66065	703.75000	 21.30	
 11.897	122.732	  0.61669	  0.12736	  0.41265	  0.46749	  0.08748	  0.01511	  0.65714	703.76001	 21.30	
 11.903	114.597	  0.61985	  0.15243	  0.38436	  0.48823	  0.07458	  0.01904	  0.65971	703.71997	 21.30	
 11.893	106.346	  0.62392	  0.18244	  0.35484	  0.50462	  0.06705	  0.02072	  0.66230	703.75000	 21.30	
 11.892	 98.155	  0.62643	  0.21538	  0.32201	  0.51417	  0.06295	  0.02335	  0.66323	703.70001	 21.30	
 11.900	 90.000	  0.62320	  0.24502	  0.28716	  0.51524	  0.05976	  0.02176	  0.65976	703.63000	 21.30	
 11.892	 81.845	  0.62460	  0.27913	  0.25513	  0.51329	  0.06156	  0.02555	  0.65873	703.65997	 21.30	
 11.893	 73.654	  0.62314	  0.31409	  0.22434	  0.50444	  0.06876	  0.02590	  0.65826	703.66998	 21.30	
 11.903	 65.403	  0.62738	  0.34965	  0.19465	  0.49808	  0.07451	  0.02416	  0.66258	703.65002	 21.30	
 11.897	 57.268	  0.62544	  0.37945	  0.17091	  0.47753	  0.09105	  0.02483	  0.65729	703.66998	 21.30	
 11.894	 49.133	  0.62719	  0.40907	  0.14767	  0.45667	  0.10668	  0.02492	  0.65945	703.71002	 21.30	
 11.902	 40.852	  0.62572	  0.43623	  0.12705	  0.43125	  0.12421	  0.02292	  0.65919	703.73999	 21.30	
 11.909	 32.701	  0.62608	  0.45875	  0.11169	  0.40080	  0.14944	  0.02180	  0.65855	703.70001	 21.30	
 11.889	 24.555	  0.62709	  0.47638	  0.09825	  0.37390	  0.17238	  0.02299	  0.65936	703.77002	 21.30	
 11.890	 16.390	  0.62696	  0.49136	  0.09004	  0.33952	  0.20463	  0.01863	  0.65803	703.78003	 21.30	
 11.899	  8.217	  0.62763	  0.50005	  0.08383	  0.30547	  0.23599	  0.01764	  0.65740	703.71002	 21.30	
 11.900	  0.000	  0.62997	  0.50558	  0.08246	  0.27358	  0.26779	  0.01377	  0.66238	703.70001	 21.30	
 11.899	 -8.217	  0.62757	  0.50117	  0.08399	  0.23914	  0.30193	  0.01172	  0.66026	703.69000	 21.30	
 11.890	-16.390	  0.62629	  0.49294	  0.09002	  0.20780	  0.33531	  0.00862	  0.65952	703.69000	 21.30	
 11.889	-24.555	  0.62602	  0.47868	  0.09860	  0.17926	  0.36537	  0.00748	  0.65832	703.63000	 21.30	
 11.909	-32.701	  0.62704	  0.46211	  0.11282	  0.15523	  0.39695	  0.00818	  0.66113	703.67999	 21.30	
 11.902	-40.852	  0.62175	  0.43672	  0.12749	  0.13002	  0.42383	  0.00555	  0.65688	703.63000	 21.30	
 11.894	-49.133	  0.62354	  0.41190	  0.14851	  0.10992	  0.45138	  0.00177	  0.66005	703.64001	 21.30	
 11.897	-57.268	  0.62596	  0.38445	  0.17072	  0.09432	  0.47226	 -0.00272	  0.66121	703.64001	 21.30	
 11.903	-65.403	  0.62435	  0.35276	  0.19542	  0.07976	  0.49061	 -0.00859	  0.66019	703.66998	 21.30	
 11.893	-73.654	  0.62086	  0.31717	  0.22456	  0.06950	  0.50164	 -0.00737	  0.66002	703.69000	 21.30	
 11.892	-81.845	  0.62265	  0.28466	  0.25619	  0.06571	  0.51006	 -0.01049	  0.66074	703.64001	 21.30	
 11.900	-90.000	  0.61864	  0.24939	  0.28577	  0.06019	  0.51161	 -0.00906	  0.65956	703.59998	 21.30	
 11.892	-98.155	  0.62179	  0.22035	  0.31884	  0.06213	  0.51147	 -0.00940	  0.66305	703.69000	 21.30	
 11.893	-106.346	  0.61739	  0.19032	  0.34966	  0.06754	  0.50085	 -0.01108	  0.65926	703.70001	 21.30	
 11.903	-114.597	  0.61714	  0.15851	  0.38152	  0.07324	  0.48836	 -0.00981	  0.66003	703.63000	 21.30	
 11.897	-122.732	  0.61566	  0.13378	  0.41126	  0.08574	  0.46859	 -0.00747	  0.65740	703.69000	 21.30	
 11.894	-130.867	  0.61672	  0.11000	  0.44177	  0.10099	  0.44853	 -0.00533	  0.66108	703.56000	 21.30	
 11.902	-139.148	  0.61827	  0.08970	  0.46784	  0.11965	  0.42376	 -0.00558	  0.66547	703.63000	 21.30	
 11.909	-147.299	  0.61485	  0.07275	  0.48733	  0.14159	  0.39180	 -0.00377	  0.66007	703.56000	 21.30	
 11.889	-155.445	  0.61325	  0.05993	  0.50352	  0.16758	  0.36025	 -0.00268	  0.65756	703.64001	 21.30	
 11.890	-163.610	  0.61778	  0.05165	  0.52034	  0.19611	  0.33104	 -0.00066	  0.66314	703.62000	 21.30	
 11.899	-171.783	  0.61384	  0.04444	  0.52539	  0.22546	  0.29480	 -0.00111	  0.65979	703.59003	 21.30	
 11.900	180.000	  0.61518	  0.04258	  0.52806	  0.25781	  0.26191	  0.00237	  0.66077	703.63000	 21.30	
 13.600	180.000	  0.59933	  0.00767	  0.55150	  0.24596	  0.25024	 -0.00659	  0.65973	703.60999	 21.30	
 13.608	-172.853	  0.59706	  0.00837	  0.54654	  0.21388	  0.28038	 -0.00842	  0.65647	703.62000	 21.30	
 13.611	-165.583	  0.60082	  0.01460	  0.54257	  0.18480	  0.31776	 -0.01026	  0.65959	703.63000	 21.30	
 13.601	-158.353	  0.59997	  0.02221	  0.53099	  0.15577	  0.34892	 -0.01312	  0.65940	703.58002	 21.30	
 13.609	-151.210	  0.60041	  0.03381	  0.51669	  0.12912	  0.38278	 -0.01555	  0.66149	703.56000	 21.30	
 13.611	-143.999	  0.60691	  0.04788	  0.50126	  0.10493	  0.41805	 -0.01323	  0.66659	703.65997	 21.30	
 13.601	-136.825	  0.60108	  0.06507	  0.47360	  0.08409	  0.44128	 -0.01552	  0.66053	703.66998	 21.30	
 13.596	-129.640	  0.60019	  0.08531	  0.44699	  0.06759	  0.46536	 -0.01427	  0.65992	703.70001	 21.30	
 13.611	-122.431	  0.60531	  0.10786	  0.42187	  0.05130	  0.49206	 -0.01360	  0.66513	703.57001	 21.30	
 13.604	-115.211	  0.60297	  0.13438	  0.38818	  0.04122	  0.50734	 -0.01742	  0.66187	703.58002	 21.30	
 13.595	-108.042	  0.60432	  0.16226	  0.35702	  0.03234	  0.52303	 -0.01700	  0.66154	703.56000	 21.30	
 13.607	-100.793	  0.60555	  0.19312	  0.32444	  0.02659	  0.53311	 -0.01697	  0.66165	703.53003	 21.30	
 13.601	-93.617	  0.60129	  0.22379	  0.28938	  0.02533	  0.53469	 -0.01746	  0.65696	703.70001	 21.30	
 13.601	-86.383	  0.60275	  0.25696	  0.25735	  0.02609	  0.53517	 -0.01558	  0.65745	703.71997	 21.30	
 13.607	-79.207	  0.60126	  0.28945	  0.22596	  0.02962	  0.52901	 -0.01332	  0.65415	703.71002	 21.30	
 13.595	-71.958	  0.60715	  0.32597	  0.19737	  0.03719	  0.52375	 -0.01374	  0.65986	703.67999	 21.30	
 13.604	-64.789	  0.60884	  0.35828	  0.17118	  0.04482	  0.51179	 -0.01437	  0.66149	703.72998	 21.30	
 13.611	-57.569	  0.60680	  0.38887	  0.14470	  0.05880	  0.49226	 -0.01152	  0.65741	703.70001	 21.30	
 13.596	-50.360	  0.60487	  0.41679	  0.12160	  0.07498	  0.46807	 -0.01017	  0.65417	703.66998	 21.30	
 13.601	-43.175	  0.60581	  0.44339	  0.10155	  0.09371	  0.44365	 -0.00817	  0.65488	703.78003	 21.30	
 13.611	-36.001	  0.60566	  0.46625	  0.08571	  0.11505	  0.41622	 -0.00527	  0.65323	703.63000	 21.30	
 13.609	-28.790	  0.61266	  0.49079	  0.07174	  0.14051	  0.38945	 -0.00228	  0.66070	703.66998	 21.30	
 13.601	-21.647	  0.61488	  0.50915	  0.06141	  0.16923	  0.35817	 -0.00149	  0.66212	703.60999	 21.30	
 13.611	-14.417	  0.61216	  0.51752	  0.05274	  0.19777	  0.32345	  0.00057	  0.65784	703.65997	 21.30	
 13.608	 -7.147	  0.61318	  0.52570	  0.04824	  0.22946	  0.29018	  0.00332	  0.65879	703.66998	 21.30	
 13.600	  0.000	  0.61710	  0.53082	  0.04678	  0.26373	  0.25788	  0.00457	  0.66259	703.65002	 21.30	
 13.608	  7.147	  0.61660	  0.52754	  0.04903	  0.29598	  0.22602	  0.00735	  0.66246	703.70001	 21.30	
 13.611	 14.417	  0.61580	  0.51873	  0.05416	  0.32949	  0.19439	  0.01106	  0.66059	703.70001	 21.30	
 13.601	 21.647	  0.61736	  0.50853	  0.06199	  0.36439	  0.16506	  0.01341	  0.66194	703.63000	 21.30	
 13.609	 28.790	  0.61399	  0.48871	  0.07277	  0.39359	  0.13813	  0.01439	  0.65939	703.73999	 21.30	
 13.611	 36.001	  0.61197	  0.46716	  0.08525	  0.42294	  0.11238	  0.01463	  0.65682	703.78998	 21.30	
 13.601	 43.175	  0.61582	  0.44598	  0.10237	  0.45386	  0.09054	  0.01528	  0.66231	703.69000	 21.30	
 13.596	 50.360	  0.62016	  0.42099	  0.12418	  0.48142	  0.07305	  0.01496	  0.66740	703.62000	 21.30	
 13.611	 57.569	  0.61215	  0.38624	  0.14582	  0.49692	  0.05766	  0.01677	  0.65989	703.65002	 21.30	
 13.604	 64.789	  0.61316	  0.35440	  0.17162	  0.51639	  0.04494	  0.01852	  0.66090	703.60999	 21.30	
 13.595	 71.958	  0.60792	  0.31911	  0.19848	  0.52533	  0.03552	  0.01753	  0.65679	703.66998	 21.30	
 13.607	 79.207	  0.61320	  0.28728	  0.22820	  0.53895	  0.02715	  0.01532	  0.66241	703.65002	 21.30	
 13.601	 86.383	  0.60963	  0.25268	  0.25936	  0.53936	  0.02607	  0.01639	  0.66106	703.71002	 21.30	
 13.601	 93.617	  0.60772	  0.21864	  0.29134	  0.53811	  0.02499	  0.01616	  0.65981	703.71002	 21.30	
 13.607	100.793	  0.60934	  0.18774	  0.32564	  0.53424	  0.02843	  0.01555	  0.66135	703.72998	 21.30	
 13.595	108.042	  0.60894	  0.15829	  0.35904	  0.52399	  0.03552	  0.01376	  0.66257	703.65002	 21.30	
 13.604	115.211	  0.60552	  0.12966	  0.38861	  0.50697	  0.04300	  0.01192	  0.66051	703.67999	 21.30	
 13.611	122.431	  0.60520	  0.10407	  0.42044	  0.48870	  0.05497	  0.00887	  0.66154	703.64001	 21.30	
 13.596	129.640	  0.60355	  0.08010	  0.44900	  0.46500	  0.06971	  0.00698	  0.66016	703.59003	 21.30	
 13.601	136.825	  0.60307	  0.06154	  0.47479	  0.43930	  0.08802	  0.00675	  0.65953	703.72998	 21.30	
 13.611	143.999	  0.60450	  0.04457	  0.49947	  0.41196	  0.10899	  0.00296	  0.66299	703.65997	 21.30	
 13.609	151.210	  0.60036	  0.03142	  0.51540	  0.37802	  0.13407	  0.00369	  0.65899	703.60999	 21.30	
 13.601	158.353	  0.59959	  0.02005	  0.53138	  0.34610	  0.15874	  0.00022	  0.65906	703.62000	 21.30	
 13.611	165.583	  0.60102	  0.01292	  0.54274	  0.31277	  0.18886	 -0.00104	  0.65957	703.59998	 21.30	
 13.608	172.853	  0.59462	  0.00862	  0.54570	  0.27664	  0.21772	 -0.00369	  0.65415	703.57001	 21.30	
 15.298	173.587	  0.58571	 -0.02530	  0.57396	  0.26683	  0.20844	 -0.01318	  0.66277	703.66998	 21.30	
 15.291	167.167	  0.58374	 -0.02117	  0.56446	  0.29855	  0.17612	 -0.01093	  0.66005	703.65002	 21.30	
 15.307	160.676	  0.58181	 -0.01366	  0.55272	  0.33196	  0.14754	 -0.00698	  0.65727	703.69000	 21.30	
 15.300	154.261	  0.58341	 -0.00685	  0.54076	  0.36483	  0.12073	 -0.00553	  0.65887	703.64001	 21.30	
 15.288	147.854	  0.58625	  0.00566	  0.52458	  0.39780	  0.09591	 -0.00606	  0.66122	703.51001	 21.30	
 15.293	141.428	  0.58327	  0.02142	  0.50123	  0.42644	  0.07446	 -0.00402	  0.65767	703.59003	 21.30	
 15.299	134.985	  0.58004	  0.03617	  0.47465	  0.45068	  0.05400	 -0.00321	  0.65355	703.58002	 21.30	
 15.305	128.583	  0.58739	  0.05629	  0.45352	  0.48227	  0.03733	 -0.00311	  0.66156	703.65997	 21.30	
 15.309	122.142	  0.58841	  0.07838	  0.42462	  0.50591	  0.02263	  0.00045	  0.66164	703.72998	 21.30	
 15.304	115.711	  0.59102	  0.10370	  0.39496	  0.52638	  0.01086	  0.00136	  0.66231	703.71997	 21.30	
 15.297	109.291	  0.58932	  0.13075	  0.36124	  0.53866	  0.00329	  0.00349	  0.65905	703.66998	 21.30	
 15.293	102.897	  0.59148	  0.15913	  0.33053	  0.55211	 -0.00340	  0.00367	  0.66148	703.62000	 21.30	
 15.293	 96.458	  0.59313	  0.19116	  0.29727	  0.55980	 -0.00655	  0.00498	  0.66181	703.62000	 21.30	
 15.300	 90.000	  0.59333	  0.22381	  0.26434	  0.56282	 -0.00776	  0.00818	  0.66097	703.71997	 21.30	
 15.293	 83.542	  0.59151	  0.25514	  0.23203	  0.55880	 -0.00785	  0.00728	  0.65695	703.77002	 21.30	
 15.293	 77.103	  0.59266	  0.28929	  0.20175	  0.55326	 -0.00172	  0.00637	  0.65714	703.65002	 21.30	
 15.297	 70.709	  0.59685	  0.32478	  0.17362	  0.54747	  0.00394	  0.00601	  0.66025	703.59003	 21.30	
 15.304	 64.289	  0.59410	  0.35616	  0.14628	  0.53125	  0.01280	  0.00741	  0.65795	703.71997	 21.30	
 15.309	 57.858	  0.59860	  0.39074	  0.12327	  0.51728	  0.02610	  0.00661	  0.66302	703.65997	 21.30	
 15.305	 51.417	  0.60139	  0.42268	  0.10027	  0.49793	  0.03983	  0.00716	  0.66304	703.67999	 21.30	
 15.299	 45.015	  0.59700	  0.44769	  0.08059	  0.47010	  0.05881	  0.00792	  0.65811	703.78998	 21.30	
 15.293	 38.572	  0.60039	  0.47595	  0.06340	  0.44549	  0.07871	  0.00481	  0.66167	703.72998	 21.30	
 15.288	 32.146	  0.59821	  0.49568	  0.04825	  0.41394	  0.10133	  0.00540	  0.65760	703.77002	 21.30	
 15.300	 25.739	  0.60167	  0.51757	  0.03600	  0.38427	  0.12772	  0.00263	  0.66098	703.71002	 21.30	
 15.307	 19.324	  0.59980	  0.53082	  0.02706	  0.35168	  0.15348	  0.00113	  0.66027	703.72998	 21.30	
 15.291	 12.833	  0.60154	  0.54427	  0.01754	  0.31863	  0.18307	 -0.00161	  0.66301	703.67999	 21.30	
 15.298	  6.413	  0.59868	  0.54713	  0.01605	  0.28509	  0.21372	 -0.00087	  0.65886	703.65997	 21.30	
 15.300	  0.000	  0.59894	  0.55107	  0.01380	  0.25200	  0.24474	 -0.00182	  0.66002	703.65997	 21.30	
 15.298	 -6.413	  0.59770	  0.54824	  0.01520	  0.21888	  0.27816	 -0.00510	  0.65847	703.60999	 21.30	
 15.291	-12.833	  0.60050	  0.54415	  0.01869	  0.18828	  0.31256	 -0.00624	  0.66233	703.58002	 21.30	
 15.307	-19.324	  0.59363	  0.52841	  0.02514	  0.15653	  0.34283	 -0.00896	  0.65457	703.67999	 21.30	
 15.300	-25.739	  0.59312	  0.51383	  0.03413	  0.12878	  0.37625	 -0.01069	  0.65552	703.72998	 21.30	
 15.288	-32.146	  0.60020	  0.50117	  0.04635	  0.10347	  0.41117	 -0.01250	  0.66361	703.63000	 21.30	
 15.293	-38.572	  0.59614	  0.47762	  0.06056	  0.08129	  0.43962	 -0.01591	  0.66078	703.65002	 21.30	
 15.299	-45.015	  0.59354	  0.45117	  0.07821	  0.06017	  0.46387	 -0.01688	  0.65843	703.64001	 21.30	
 15.305	-51.417	  0.59239	  0.42405	  0.09825	  0.04269	  0.48839	 -0.02017	  0.65865	703.65997	 21.30	
 15.309	-57.858	  0.59034	  0.39306	  0.12055	  0.02709	  0.50999	 -0.02045	  0.65732	703.77002	 21.30	
 15.304	-64.289	  0.58976	  0.36082	  0.14498	  0.01428	  0.52778	 -0.02413	  0.65773	703.75000	 21.30	
 15.297	-70.709	  0.59215	  0.32976	  0.17106	  0.00391	  0.54449	 -0.02198	  0.66211	703.79999	 21.30	
 15.293	-77.103	  0.58908	  0.29554	  0.19900	 -0.00310	  0.55082	 -0.02302	  0.65769	703.71997	 21.30	
 15.293	-83.542	  0.58822	  0.26141	  0.23096	 -0.00777	  0.55759	 -0.02445	  0.65874	703.75000	 21.30	
 15.300	-90.000	  0.58683	  0.22702	  0.26202	 -0.01186	  0.55956	 -0.02624	  0.65964	703.77002	 21.30	
 15.293	-96.458	  0.58412	  0.19537	  0.29338	 -0.00884	  0.55342	 -0.02588	  0.65636	703.63000	 21.30	
 15.293	-102.897	  0.58555	  0.16596	  0.32705	 -0.00418	  0.54795	 -0.02632	  0.65716	703.70001	 21.30	
 15.297	-109.291	  0.58872	  0.13652	  0.36115	  0.00070	  0.54139	 -0.02426	  0.66294	703.72998	 21.30	
 15.304	-115.711	  0.58370	  0.10906	  0.39121	  0.01068	  0.52299	 -0.02387	  0.65868	703.67999	 21.30	
 15.309	-122.142	  0.58046	  0.08231	  0.41889	  0.01938	  0.50068	 -0.02578	  0.65625	703.75000	 21.30	
 15.305	-128.583	  0.58181	  0.05917	  0.45102	  0.03357	  0.48072	 -0.02535	  0.65829	703.73999	 21.30	
 15.299	-134.985	  0.57791	  0.03983	  0.47493	  0.05078	  0.45271	 -0.02284	  0.65286	703.71002	 21.30	
 15.293	-141.428	  0.57943	  0.02183	  0.49971	  0.06914	  0.42668	 -0.02170	  0.65573	703.78003	 21.30	
 15.288	-147.854	  0.58171	  0.00652	  0.52312	  0.09106	  0.39893	 -0.02129	  0.65910	703.65997	 21.30	
 15.300	-154.261	  0.58005	 -0.00657	  0.53917	  0.11485	  0.36631	 -0.02190	  0.65872	703.71997	 21.30	
 15.307	-160.676	  0.58332	 -0.01512	  0.55606	  0.14204	  0.33685	 -0.01977	  0.66171	703.71997	 21.30	
 15.291	-167.167	  0.58253	 -0.02138	  0.56485	  0.17091	  0.30376	 -0.02097	  0.66100	703.75000	 21.30	
 15.298	-173.587	  0.58431	 -0.02643	  0.57407	  0.20211	  0.27005	 -0.01513	  0.66239	703.78998	 21.30	
 15.300	180.000	  0.58302	 -0.02664	  0.57350	  0.23410	  0.23720	 -0.01260	  0.66005	703.64001	 21.30	
 17.000	180.000	  0.56571	 -0.05822	  0.59367	  0.22069	  0.22501	 -0.02328	  0.66209	703.75000	 21.30	
 16.990	-174.179	  0.56397	 -0.05641	  0.58981	  0.18823	  0.25774	 -0.02292	  0.65913	703.71002	 21.30	
 17.009	-168.383	  0.55994	 -0.05244	  0.58235	  0.15725	  0.28993	 -0.02454	  0.65639	703.78003	 21.30	
 17.000	-162.596	  0.56264	 -0.04823	  0.57524	  0.12893	  0.32282	 -0.02590	  0.65926	703.65002	 21.30	
 16.990	-156.759	  0.56226	 -0.04048	  0.56266	  0.10135	  0.35398	 -0.02751	  0.65834	703.75000	 21.30	
 16.995	-150.919	  0.56077	 -0.02859	  0.54355	  0.07811	  0.38537	 -0.03308	  0.65822	703.77002	 21.30	
 16.988	-145.161	  0.56650	 -0.01573	  0.52984	  0.05852	  0.41661	 -0.03204	  0.66069	703.65997	 21.30	
 17.014	-139.343	  0.56590	 -0.00185	  0.50694	  0.03537	  0.44785	 -0.03495	  0.66155	703.69000	 21.30	
 17.007	-133.546	  0.56661	  0.01503	  0.48264	  0.01679	  0.47432	 -0.03718	  0.66126	703.65002	 21.30	
 17.001	-127.699	  0.56341	  0.03606	  0.45187	  0.00039	  0.49763	 -0.03107	  0.65956	703.77002	 21.30	
 17.006	-121.937	  0.56631	  0.05807	  0.42532	 -0.01205	  0.52144	 -0.03148	  0.66218	703.71002	 21.30	
 17.002	-116.134	  0.56706	  0.08530	  0.39316	 -0.02038	  0.53882	 -0.03670	  0.66134	703.77002	 21.30	
 17.001	-110.310	  0.56604	  0.11045	  0.36140	 -0.03083	  0.55403	 -0.02814	  0.65925	703.76001	 21.30	
 16.988	-104.517	  0.56600	  0.13740	  0.32855	 -0.03797	  0.56377	 -0.02854	  0.65845	703.72998	 21.30	
 17.008	-98.662	  0.56789	  0.16727	  0.29678	 -0.04090	  0.57266	 -0.03156	  0.65805	703.70001	 21.30	
 16.996	-92.909	  0.56909	  0.19956	  0.26407	 -0.04312	  0.57919	 -0.03153	  0.66120	703.69000	 21.30	
 16.996	-87.091	  0.56774	  0.23158	  0.23154	 -0.04279	  0.57603	 -0.03010	  0.65702	703.66998	 21.30	
 17.012	-81.253	  0.57022	  0.26553	  0.20057	 -0.03952	  0.57446	 -0.02963	  0.65803	703.76001	 21.30	
 16.988	-75.483	  0.56997	  0.29863	  0.17209	 -0.03347	  0.56620	 -0.02882	  0.65851	703.69000	 21.30	
 17.001	-69.690	  0.57491	  0.33337	  0.14465	 -0.02800	  0.56103	 -0.03315	  0.66320	703.71997	 21.30	
 17.002	-63.866	  0.57301	  0.36448	  0.11845	 -0.01774	  0.54428	 -0.03132	  0.65958	703.71997	 21.30	
 17.006	-58.063	  0.57651	  0.39876	  0.09433	 -0.00525	  0.52856	 -0.02891	  0.66329	703.84003	 21.30	
 17.001	-52.301	  0.57474	  0.42702	  0.07411	  0.01064	  0.50698	 -0.02928	  0.65893	703.78998	 21.30	
 17.007	-46.454	  0.57716	  0.45613	  0.05270	  0.02636	  0.48295	 -0.02620	  0.66140	703.72998	 21.30	
 17.014	-40.657	  0.57845	  0.48311	  0.03549	  0.04553	  0.45685	 -0.02747	  0.66128	703.75000	 21.30	
 16.988	-34.839	  0.57943	  0.50589	  0.02102	  0.06902	  0.42575	 -0.02471	  0.66128	703.71997	 21.30	
 16.995	-29.081	  0.57578	  0.52320	  0.00760	  0.09173	  0.39412	 -0.02253	  0.65790	703.72998	 21.30	
 16.990	-23.241	  0.58241	  0.54359	 -0.00243	  0.11992	  0.36410	 -0.02070	  0.66307	703.78003	 21.30	
 17.000	-17.404	  0.58100	  0.55721	 -0.01182	  0.14699	  0.32962	 -0.01834	  0.66120	703.78003	 21.30	
 17.009	-11.617	  0.57833	  0.56245	 -0.01389	  0.17509	  0.29705	 -0.01732	  0.65695	703.75000	 21.30	
 16.990	 -5.821	  0.58488	  0.57253	 -0.01799	  0.20788	  0.26670	 -0.01770	  0.66289	703.83002	 21.30	
 17.000	  0.000	  0.58485	  0.57485	 -0.02059	  0.23988	  0.23293	 -0.01532	  0.66335	703.72998	 21.30	
 16.990	  5.821	  0.58375	  0.57132	 -0.01918	  0.27292	  0.20041	 -0.01300	  0.66196	703.76001	 21.30	
 17.009	 11.617	  0.57828	  0.56083	 -0.01396	  0.30441	  0.16853	 -0.01014	  0.65647	703.69000	 21.30	
 17.000	 17.404	  0.57966	  0.55204	 -0.00971	  0.33733	  0.13893	 -0.00996	  0.65773	703.60999	 21.30	
 16.990	 23.241	  0.58206	  0.54023	 -0.00146	  0.37085	  0.11204	 -0.00721	  0.66098	703.63000	 21.30	
 16.995	 29.081	  0.58198	  0.52350	  0.01115	  0.40353	  0.08846	 -0.00386	  0.66055	703.71002	 21.30	
 16.988	 34.839	  0.58096	  0.50164	  0.02326	  0.43204	  0.06450	 -0.00289	  0.65923	703.71997	 21.30	
 17.014	 40.657	  0.58311	  0.48092	  0.03870	  0.46323	  0.04432	 -0.00507	  0.66305	703.79999	 21.30	
 17.007	 46.454	  0.58221	  0.45296	  0.05663	  0.48897	  0.02523	 -0.00285	  0.66171	703.73999	 21.30	
 17.001	 52.301	  0.57948	  0.42194	  0.07617	  0.51070	  0.00876	 -0.00072	  0.65862	703.62000	 21.30	
 17.006	 58.063	  0.58851	  0.39847	  0.09885	  0.54033	 -0.00658	 -0.00229	  0.67064	703.60999	 21.30	
 17.002	 63.866	  0.58207	  0.36212	  0.12282	  0.55147	 -0.01674	 -0.00143	  0.66344	703.71997	 21.30	
 17.001	 69.690	  0.57620	  0.32684	  0.14807	  0.56092	 -0.02506	 -0.00043	  0.65782	703.73999	 21.30	
 16.988	 75.483	  0.57875	  0.29498	  0.17635	  0.57319	 -0.03114	 -0.00266	  0.66140	703.66998	 21.30	
 17.012	 81.253	  0.57776	  0.26177	  0.20407	  0.58089	 -0.03836	 -0.00393	  0.66223	703.81000	 21.30	
 16.996	 87.091	  0.57148	  0.22595	  0.23434	  0.57837	 -0.03888	 -0.00141	  0.65561	703.71997	 21.30	
 16.996	 92.909	  0.57352	  0.19532	  0.26693	  0.58002	 -0.03880	 -0.00431	  0.65950	703.71997	 21.30	
 17.008	 98.662	  0.57222	  0.16400	  0.29817	  0.57496	 -0.03775	 -0.00260	  0.65755	703.72998	 21.30	
 16.988	104.517	  0.57299	  0.13387	  0.33113	  0.56798	 -0.03434	 -0.00503	  0.66107	703.66998	 21.30	
 17.001	110.310	  0.57045	  0.10526	  0.36167	  0.55502	 -0.02846	 -0.00625	  0.65889	703.83002	 21.30	
 17.002	116.134	  0.56811	  0.08011	  0.39345	  0.53750	 -0.01821	 -0.00931	  0.65729	703.72998	 21.30	
 17.006	121.937	  0.57195	  0.05461	  0.42778	  0.52188	 -0.00891	 -0.00960	  0.66245	703.69000	 21.30	
 17.001	127.699	  0.57112	  0.03449	  0.45705	  0.49981	  0.00670	 -0.01349	  0.66351	703.71002	 21.30	
 17.007	133.546	  0.56663	  0.01411	  0.48099	  0.47163	  0.02116	 -0.01546	  0.65940	703.58002	 21.30	
 17.014	139.343	  0.56804	 -0.00356	  0.50783	  0.44538	  0.03932	 -0.01605	  0.66204	703.73999	 21.30	
 16.988	145.161	  0.56700	 -0.01877	  0.52894	  0.41575	  0.05951	 -0.01672	  0.66200	703.77002	 21.30	
 16.995	150.919	  0.56028	 -0.03032	  0.54157	  0.38041	  0.08235	 -0.01846	  0.65241	703.78998	 21.30	
 16.990	156.759	  0.56378	 -0.04005	  0.56178	  0.35098	  0.10855	 -0.01860	  0.65873	703.87000	 21.30	
 17.000	162.596	  0.56995	 -0.04880	  0.58012	  0.32127	  0.13618	 -0.01890	  0.66642	703.72998	 21.30	
 17.009	168.383	  0.56086	 -0.05428	  0.58157	  0.28371	  0.16291	 -0.02107	  0.65742	703.78003	 21.30	
 16.990	174.179	  0.56457	 -0.05765	  0.58941	  0.25124	  0.19420	 -0.02330	  0.66129	703.73999	 21.30	
 18.709	174.675	  0.53987	 -0.09164	  0.60413	  0.23324	  0.17796	 -0.03274	  0.65716	703.71997	 21.30	
 18.703	169.441	  0.54378	 -0.09078	  0.60451	  0.26752	  0.14811	 -0.03176	  0.66190	703.78003	 21.30	
 18.691	164.085	  0.53932	 -0.08515	  0.59084	  0.29859	  0.11858	 -0.02618	  0.65655	703.85999	 21.30	
 18.706	158.818	  0.54525	 -0.07791	  0.58425	  0.33540	  0.09301	 -0.02867	  0.66112	703.78003	 21.30	
 18.695	153.537	  0.54243	 -0.06797	  0.56565	  0.36609	  0.06771	 -0.02580	  0.65765	703.75000	 21.30	
 18.704	148.255	  0.55073	 -0.06023	  0.55737	  0.40315	  0.04386	 -0.02467	  0.66878	703.79999	 21.30	
 18.698	142.952	  0.54346	 -0.04650	  0.52839	  0.42834	  0.02375	 -0.02323	  0.65839	703.76001	 21.30	
 18.699	137.625	  0.54925	 -0.03085	  0.50951	  0.46125	  0.00544	 -0.02432	  0.66357	703.72998	 21.30	
 18.705	132.343	  0.54648	 -0.01321	  0.48214	  0.48620	 -0.01158	 -0.02310	  0.66089	703.73999	 21.30	
 18.713	127.067	  0.54967	  0.00554	  0.45589	  0.51265	 -0.02796	 -0.02218	  0.66222	703.70001	 21.30	
 18.700	121.794	  0.54842	  0.02799	  0.42526	  0.53274	 -0.03917	 -0.02000	  0.65926	703.67999	 21.30	
 18.698	116.504	  0.54787	  0.05066	  0.39339	  0.55013	 -0.05023	 -0.01700	  0.65905	703.65997	 21.30	
 18.707	111.165	  0.55092	  0.07712	  0.36310	  0.56861	 -0.05880	 -0.01638	  0.66085	703.59003	 21.30	
 18.690	105.863	  0.55499	  0.10450	  0.33272	  0.58511	 -0.06628	 -0.01783	  0.66455	703.66998	 21.30	
 18.696	100.583	  0.55289	  0.13407	  0.29899	  0.59051	 -0.06867	 -0.01438	  0.65905	703.70001	 21.30	
 18.700	 95.309	  0.55235	  0.16413	  0.26657	  0.59627	 -0.07195	 -0.01383	  0.65916	703.64001	 21.30	
 18.700	 90.000	  0.55109	  0.19522	  0.23323	  0.59571	 -0.07148	 -0.01367	  0.65529	703.64001	 21.30	
 18.700	 84.691	  0.55540	  0.22784	  0.20419	  0.59944	 -0.07153	 -0.01287	  0.66006	703.66998	 21.30	
 18.696	 79.417	  0.55541	  0.26124	  0.17342	  0.59440	 -0.06895	 -0.01322	  0.65738	703.71997	 21.30	
 18.690	 74.137	  0.55514	  0.29326	  0.14630	  0.58507	 -0.06278	 -0.01234	  0.65547	703.73999	 21.30	
 18.707	 68.835	  0.55864	  0.32894	  0.11907	  0.57763	 -0.05677	 -0.01120	  0.65960	703.56000	 21.30	
 18.698	 63.496	  0.55461	  0.35946	  0.09323	  0.55906	 -0.04689	 -0.01245	  0.65526	703.64001	 21.30	
 18.700	 58.206	  0.55780	  0.39221	  0.06914	  0.54355	 -0.03699	 -0.01203	  0.65687	703.66998	 21.30	
 18.713	 52.933	  0.56144	  0.42483	  0.04798	  0.52715	 -0.02383	 -0.01435	  0.66097	703.76001	 21.30	
 18.705	 47.657	  0.55882	  0.45171	  0.02834	  0.50180	 -0.00931	 -0.01778	  0.65822	703.70001	 21.30	
 18.699	 42.375	  0.56802	  0.48578	  0.01116	  0.48210	  0.01013	 -0.01630	  0.66708	703.72998	 21.30	
 18.698	 37.048	  0.55959	  0.50351	 -0.00436	  0.44708	  0.02926	 -0.01529	  0.65679	703.71002	 21.30	
 18.704	 31.745	  0.56326	  0.52801	 -0.01805	  0.42047	  0.05035	 -0.01581	  0.66180	703.76001	 21.30	
 18.695	 26.463	  0.56221	  0.54552	 -0.02928	  0.38791	  0.07499	 -0.01890	  0.65964	703.67999	 21.30	
 18.706	 21.182	  0.56417	  0.56313	 -0.03666	  0.35773	  0.10142	 -0.02121	  0.66042	703.72998	 21.30	
 18.691	 15.915	  0.56243	  0.57376	 -0.04447	  0.32360	  0.12788	 -0.02031	  0.65993	703.71997	 21.30	
 18.703	 10.559	  0.56315	  0.58486	 -0.05105	  0.29073	  0.15740	 -0.02066	  0.66178	703.67999	 21.30	
 18.709	  5.325	  0.56084	  0.58797	 -0.05385	  0.25754	  0.18629	 -0.02178	  0.65791	703.79999	 21.30	
 18.700	  0.000	  0.55755	  0.58602	 -0.05437	  0.22383	  0.21710	 -0.02203	  0.65376	703.71997	 21.30	
 18.709	 -5.325	  0.56217	  0.58983	 -0.05378	  0.19326	  0.25089	 -0.02411	  0.65987	703.72998	 21.30	
 18.703	-10.559	  0.55954	  0.58196	 -0.04978	  0.16161	  0.28314	 -0.02542	  0.65629	703.71997	 21.30	
 18.691	-15.915	  0.55648	  0.57043	 -0.04506	  0.13185	  0.31518	 -0.02786	  0.65398	703.72998	 21.30	
 18.706	-21.182	  0.56192	  0.56464	 -0.03840	  0.10490	  0.35078	 -0.03024	  0.66166	703.73999	 21.30	
 18.695	-26.463	  0.55732	  0.54517	 -0.02769	  0.07948	  0.38060	 -0.03109	  0.65606	703.65997	 21.30	
 18.704	-31.745	  0.55984	  0.53039	 -0.01732	  0.05485	  0.41365	 -0.03453	  0.65968	703.78003	 21.30	
 18.698	-37.048	  0.55853	  0.50833	 -0.00482	  0.03364	  0.44231	 -0.03473	  0.65863	703.70001	 21.30	
 18.699	-42.375	  0.55588	  0.48332	  0.01010	  0.01190	  0.47112	 -0.03504	  0.65889	703.65997	 21.30	
 18.705	-47.657	  0.55304	  0.45446	  0.02727	 -0.00559	  0.49461	 -0.03591	  0.65533	703.75000	 21.30	
 18.713	-52.933	  0.55238	  0.42664	  0.04751	 -0.01991	  0.51778	 -0.03669	  0.65563	703.75000	 21.30	
 18.700	-58.206	  0.55480	  0.39925	  0.06856	 -0.03546	  0.54136	 -0.03958	  0.65917	703.78003	 21.30	
 18.698	-63.496	  0.55465	  0.36785	  0.09176	 -0.04779	  0.56008	 -0.04014	  0.66138	703.72998	 21.30	
 18.707	-68.835	  0.55492	  0.33598	  0.11662	 -0.05753	  0.57641	 -0.03804	  0.66266	703.75000	 21.30	
 18.690	-74.137	  0.55270	  0.30125	  0.14353	 -0.06395	  0.58488	 -0.03699	  0.66078	703.76001	 21.30	
 18.696	-79.417	  0.55264	  0.26907	  0.17347	 -0.07043	  0.59506	 -0.03838	  0.66158	703.66998	 21.30	
 18.700	-84.691	  0.55147	  0.23489	  0.20289	 -0.07443	  0.59949	 -0.04017	  0.66190	703.65997	 21.30	
 18.700	-90.000	  0.54604	  0.20143	  0.23185	 -0.07474	  0.59616	 -0.03914	  0.65658	703.69000	 21.30	
 18.700	-95.309	  0.54718	  0.17055	  0.26433	 -0.07570	  0.59695	 -0.04002	  0.65993	703.72998	 21.30	
 18.696	-100.583	  0.54828	  0.13992	  0.29703	 -0.07349	  0.59195	 -0.04145	  0.66093	703.71002	 21.30	
 18.690	-105.863	  0.54759	  0.11078	  0.32897	 -0.06935	  0.58296	 -0.03848	  0.66150	703.76001	 21.30	
 18.707	-111.165	  0.54948	  0.08367	  0.36395	 -0.06299	  0.57263	 -0.03907	  0.66435	703.71002	 21.30	
 18.698	-116.504	  0.54593	  0.05697	  0.39365	 -0.05404	  0.55390	 -0.03973	  0.65980	703.71997	 21.30	
 18.700	-121.794	  0.54403	  0.03257	  0.42306	 -0.04413	  0.53384	 -0.04140	  0.65790	703.67999	 21.30	
 18.713	-127.067	  0.54892	  0.01285	  0.45625	 -0.03009	  0.51635	 -0.03798	  0.66333	703.72998	 21.30	
 18.705	-132.343	  0.54270	 -0.00945	  0.48126	 -0.01690	  0.48735	 -0.04064	  0.65839	703.71997	 21.30	
 18.699	-137.625	  0.54190	 -0.02787	  0.50604	 -0.00017	  0.46033	 -0.03891	  0.65844	703.81000	 21.30	
 18.698	-142.952	  0.54199	 -0.04427	  0.52963	  0.01772	  0.43198	 -0.03776	  0.65943	703.71002	 21.30	
 18.704	-148.255	  0.54075	 -0.05606	  0.54896	  0.03931	  0.40187	 -0.03720	  0.65729	703.73999	 21.30	
 18.695	-153.537	  0.54187	 -0.06880	  0.56716	  0.06075	  0.37114	 -0.03906	  0.66044	703.73999	 21.30	
 18.706	-158.818	  0.53820	 -0.07684	  0.57864	  0.08594	  0.33762	 -0.03623	  0.65722	703.75000	 21.30	
 18.691	-164.085	  0.53955	 -0.08344	  0.59006	  0.11314	  0.30564	 -0.03384	  0.65716	703.69000	 21.30	
 18.703	-169.441	  0.53853	 -0.08892	  0.59805	  0.14128	  0.27263	 -0.03146	  0.65699	703.71997	 21.30	
 18.709	-174.675	  0.53889	 -0.09399	  0.60395	  0.17015	  0.23984	 -0.03506	  0.65797	703.72998	 21.30	
 18.700	180.000	  0.54099	 -0.09659	  0.60696	  0.20237	  0.20755	 -0.03411	  0.66059	703.71997	 21.30	
 20.400	180.000	  0.51540	 -0.12982	  0.61792	  0.18275	  0.19034	 -0.04183	  0.65703	703.73999	 21.30	
 20.401	-175.153	  0.51608	 -0.12969	  0.61874	  0.15120	  0.22241	 -0.04466	  0.65898	703.78003	 21.30	
 20.407	-170.264	  0.52008	 -0.12640	  0.61868	  0.12246	  0.25785	 -0.04494	  0.66194	703.73999	 21.30	
 20.410	-165.423	  0.52120	 -0.12058	  0.61077	  0.09502	  0.29096	 -0.04655	  0.66360	703.64001	 21.30	
 20.392	-160.496	  0.51722	 -0.11332	  0.59571	  0.06735	  0.32096	 -0.04476	  0.65774	703.70001	 21.30	
 20.401	-155.705	  0.51922	 -0.10499	  0.58657	  0.04389	  0.35584	 -0.04474	  0.66063	703.65997	 21.30	
 20.405	-150.835	  0.51870	 -0.09509	  0.56870	  0.02049	  0.38560	 -0.04702	  0.65968	703.66998	 21.30	
 20.397	-145.903	  0.51868	 -0.08482	  0.55028	 -0.00316	  0.41739	 -0.04316	  0.66090	703.73999	 21.30	
 20.392	-141.062	  0.51796	 -0.06709	  0.52615	 -0.01935	  0.44595	 -0.04721	  0.65773	703.75000	 21.30	
 20.396	-136.227	  0.52045	 -0.05047	  0.50419	 -0.03455	  0.47421	 -0.05254	  0.65825	703.77002	 21.30	
 20.408	-131.372	  0.51956	 -0.03457	  0.47782	 -0.05245	  0.50049	 -0.04801	  0.65879	703.69000	 21.30	
 20.410	-126.511	  0.52495	 -0.01447	  0.45295	 -0.06631	  0.52856	 -0.04441	  0.66463	703.71002	 21.30	
 20.400	-121.604	  0.52426	  0.00769	  0.42360	 -0.07607	  0.54811	 -0.05194	  0.66301	703.64001	 21.30	
 20.403	-116.741	  0.52348	  0.03033	  0.39091	 -0.08815	  0.56671	 -0.04436	  0.66187	703.77002	 21.30	
 20.413	-111.900	  0.52361	  0.05413	  0.35961	 -0.09627	  0.58124	 -0.04441	  0.66195	703.71997	 21.30	
 20.398	-107.004	  0.52470	  0.08071	  0.32782	 -0.10171	  0.59408	 -0.04178	  0.66191	703.78998	 21.30	
 20.394	-102.132	  0.51957	  0.10964	  0.29207	 -0.10334	  0.59582	 -0.04399	  0.65296	703.77002	 21.30	
 20.403	-97.332	  0.52454	  0.13848	  0.26225	 -0.10762	  0.60787	 -0.03963	  0.65870	703.81000	 21.30	
 20.392	-92.440	  0.52546	  0.17032	  0.23074	 -0.10810	  0.61126	 -0.04595	  0.65907	703.81000	 21.30	
 20.392	-87.560	  0.52646	  0.20120	  0.19998	 -0.10849	  0.61210	 -0.04226	  0.65943	703.64001	 21.30	
 20.403	-82.668	  0.52645	  0.23468	  0.16941	 -0.10539	  0.60836	 -0.04400	  0.65755	703.66998	 21.30	
 20.394	-77.868	  0.52675	  0.26691	  0.14119	 -0.10135	  0.60290	 -0.04345	  0.65664	703.71997	 21.30	
 20.398	-72.996	  0.52728	  0.29920	  0.11312	 -0.09640	  0.59557	 -0.04246	  0.65785	703.69000	 21.30	
 20.413	-68.100	  0.53105	  0.33456	  0.08665	 -0.09052	  0.58727	 -0.04466	  0.66256	703.82001	 21.30	
 20.403	-63.259	  0.53013	  0.36508	  0.06253	 -0.08113	  0.57056	 -0.04453	  0.65906	703.70001	 21.30	
 20.400	-58.396	  0.52907	  0.39523	  0.03960	 -0.06909	  0.55056	 -0.04373	  0.65559	703.67999	 21.30	
 20.410	-53.489	  0.53276	  0.42781	  0.01873	 -0.05604	  0.53254	 -0.04375	  0.65930	703.65002	 21.30	
 20.408	-48.628	  0.53282	  0.45563	 -0.00027	 -0.04078	  0.50749	 -0.04421	  0.65756	703.71997	 21.30	
 20.396	-43.773	  0.53425	  0.48332	 -0.01814	 -0.02421	  0.48292	 -0.04343	  0.66004	703.81000	 21.30	
 20.392	-38.938	  0.53665	  0.50953	 -0.03357	 -0.00586	  0.45649	 -0.04134	  0.66020	703.81000	 21.30	
 20.397	-34.097	  0.53639	  0.53098	 -0.04586	  0.01433	  0.42767	 -0.03945	  0.65912	703.77002	 21.30	
 20.405	-29.165	  0.53880	  0.55348	 -0.05890	  0.03777	  0.39775	 -0.04013	  0.66164	703.78998	 21.30	
 20.401	-24.295	  0.53889	  0.57073	 -0.07010	  0.06138	  0.36557	 -0.03952	  0.66272	703.89001	 21.30	
 20.392	-19.504	  0.53863	  0.58238	 -0.07554	  0.08890	  0.33187	 -0.03532	  0.65886	703.85999	 21.30	
 20.410	-14.577	  0.54006	  0.59458	 -0.08275	  0.11689	  0.29975	 -0.03197	  0.66072	703.79999	 21.30	
 20.407	 -9.736	  0.53647	  0.59788	 -0.08664	  0.14492	  0.26540	 -0.03276	  0.65598	703.70001	 21.30	
 20.401	 -4.847	  0.54175	  0.60875	 -0.09055	  0.17663	  0.23313	 -0.03198	  0.66229	703.84998	 21.30	
 20.400	  0.000	  0.54033	  0.60836	 -0.09176	  0.20790	  0.20018	 -0.03039	  0.66126	703.77002	 21.30	
 20.401	  4.847	  0.53781	  0.60336	 -0.09068	  0.23992	  0.16825	 -0.03091	  0.65720	703.79999	 21.30	
 20.407	  9.736	  0.53692	  0.59746	 -0.08653	  0.27217	  0.13847	 -0.03028	  0.65651	703.81000	 21.30	
 20.410	 14.577	  0.53719	  0.58911	 -0.08246	  0.30560	  0.10813	 -0.02730	  0.65602	703.65002	 21.30	
 20.392	 19.504	  0.53666	  0.57906	 -0.07700	  0.33801	  0.08149	 -0.02971	  0.65612	703.70001	 21.30	
 20.401	 24.295	  0.53524	  0.56175	 -0.06833	  0.36876	  0.05602	 -0.02579	  0.65443	703.70001	 21.30	
 20.405	 29.165	  0.53792	  0.54800	 -0.05890	  0.40234	  0.03235	 -0.02522	  0.65841	703.72998	 21.30	
 20.397	 34.097	  0.54024	  0.52871	 -0.04616	  0.43363	  0.00999	 -0.02721	  0.65943	703.76001	 21.30	
 20.392	 38.938	  0.53820	  0.50409	 -0.03200	  0.46259	 -0.01009	 -0.02400	  0.65894	703.81000	 21.30	
 20.396	 43.773	  0.53992	  0.48053	 -0.01732	  0.49078	 -0.02866	 -0.02534	  0.66067	703.78998	 21.30	
 20.408	 48.628	  0.53342	  0.44919	  0.00007	  0.51057	 -0.04377	 -0.02478	  0.65428	703.69000	 21.30	
 20.410	 53.489	  0.54023	  0.42392	  0.02043	  0.54029	 -0.05914	 -0.02477	  0.66342	703.69000	 21.30	
 20.400	 58.396	  0.53464	  0.38971	  0.03920	  0.55623	 -0.07332	 -0.02548	  0.65663	703.79999	 21.30	
 20.403	 63.259	  0.53953	  0.36087	  0.06529	  0.57761	 -0.08237	 -0.01900	  0.66262	703.66998	 21.30	
 20.413	 68.100	  0.53593	  0.32616	  0.08902	  0.58998	 -0.09122	 -0.02116	  0.65967	703.75000	 21.30	
 20.398	 72.996	  0.53267	  0.29136	  0.11559	  0.59835	 -0.09764	 -0.02114	  0.65766	703.71002	 21.30	
 20.394	 77.868	  0.53335	  0.25921	  0.14097	  0.60938	 -0.10583	 -0.02198	  0.65933	703.65997	 21.30	
 20.403	 82.668	  0.53157	  0.22490	  0.16975	  0.61315	 -0.10861	 -0.02212	  0.65864	703.69000	 21.30	
 20.392	 87.560	  0.53099	  0.19375	  0.20174	  0.61581	 -0.10825	 -0.01981	  0.65989	703.75000	 21.30	
 20.392	 92.440	  0.52963	  0.16059	  0.23104	  0.61378	 -0.10976	 -0.02256	  0.65784	703.73999	 21.30	
 20.403	 97.332	  0.52768	  0.13039	  0.26334	  0.60760	 -0.10689	 -0.02268	  0.65648	703.72998	 21.30	
 20.394	102.132	  0.53141	  0.10245	  0.29737	  0.60601	 -0.10445	 -0.02370	  0.66209	703.66998	 21.30	
 20.398	107.004	  0.52663	  0.07297	  0.32706	  0.59353	 -0.10072	 -0.02452	  0.65900	703.64001	 21.30	
 20.413	111.900	  0.52798	  0.04664	  0.36100	  0.58185	 -0.09438	 -0.02670	  0.66159	703.65002	 21.30	
 20.403	116.741	  0.52525	  0.02006	  0.39088	  0.56194	 -0.08587	 -0.02875	  0.65841	703.70001	 21.30	
 20.400	121.604	  0.52066	 -0.00112	  0.41851	  0.53856	 -0.07306	 -0.02933	  0.65350	703.60999	 21.30	
 20.410	126.511	  0.52284	 -0.02308	  0.45026	  0.52028	 -0.06330	 -0.03096	  0.65905	703.71002	 21.30	
 20.408	131.372	  0.52461	 -0.04357	  0.48122	  0.49816	 -0.04969	 -0.03017	  0.66311	703.69000	 21.30	
 20.396	136.227	  0.52001	 -0.05931	  0.50292	  0.46801	 -0.03296	 -0.03295	  0.65718	703.72998	 21.30	
 20.392	141.062	  0.52094	 -0.07456	  0.52857	  0.44077	 -0.01503	 -0.03344	  0.65949	703.70001	 21.30	
 20.397	145.903	  0.51981	 -0.08771	  0.54884	  0.41018	  0.00535	 -0.03534	  0.65870	703.78998	 21.30	
 20.405	150.835	  0.52519	 -0.10158	  0.57517	  0.38297	  0.02677	 -0.03580	  0.66642	703.70001	 21.30	
 20.401	155.705	  0.51884	 -0.10880	  0.58518	  0.34723	  0.05005	 -0.04048	  0.66032	703.69000	 21.30	
 20.392	160.496	  0.51566	 -0.11466	  0.59533	  0.31223	  0.07498	 -0.03761	  0.65627	703.66998	 21.30	
 20.410	165.423	  0.51634	 -0.12073	  0.60554	  0.28024	  0.10281	 -0.03625	  0.65665	703.71002	 21.30	
 20.407	170.264	  0.51799	 -0.12700	  0.61563	  0.24744	  0.13097	 -0.03640	  0.66051	703.65002	 21.30	
 20.401	175.153	  0.51512	 -0.12669	  0.61641	  0.21387	  0.16087	 -0.03956	  0.65619	703.76001	 21.30	
  0.141	 45.000	  0.65651	  0.29073	  0.31869	  0.30605	  0.30200	  0.04827	  0.65780	703.66998	 21.30	
  4.001	128.691	  0.65981	  0.23652	  0.36982	  0.36079	  0.24343	  0.04543	  0.66352	703.58002	 21.30	
  4.002	 76.995	  0.65538	  0.29833	  0.30018	  0.37681	  0.22946	  0.04920	  0.65906	703.73999	 21.30	
  4.002	 25.892	  0.65387	  0.35316	  0.25366	  0.33319	  0.26665	  0.04748	  0.65545	703.73999	 21.30	
  4.002	-25.892	  0.65574	  0.35388	  0.25565	  0.26882	  0.33264	  0.04200	  0.65858	703.73999	 21.30	
  4.002	-76.995	  0.65613	  0.29999	  0.30262	  0.23105	  0.37552	  0.03624	  0.65959	703.71997	 21.30	
  4.001	-128.691	  0.65757	  0.23973	  0.36816	  0.24193	  0.36195	  0.03413	  0.66129	703.77002	 21.30	
  4.000	180.000	  0.65405	  0.20960	  0.39717	  0.29609	  0.29776	  0.03911	  0.65839	703.67999	 21.30	
  8.000	180.000	  0.64319	  0.12403	  0.47096	  0.28155	  0.28546	  0.02246	  0.66228	703.66998	 21.30	
  7.991	-152.370	  0.63322	  0.13976	  0.44368	  0.20955	  0.35564	  0.01769	  0.65291	703.66998	 21.30	
  7.997	-124.550	  0.64254	  0.18761	  0.39644	  0.16492	  0.42095	  0.01542	  0.66118	703.56000	 21.30	
  8.006	-96.837	  0.64312	  0.25264	  0.32420	  0.14391	  0.45095	  0.01516	  0.66084	703.71997	 21.30	
  7.988	-69.228	  0.64521	  0.32737	  0.25436	  0.15353	  0.44215	  0.01745	  0.65937	703.64001	 21.30	
  7.997	-41.563	  0.64554	  0.39376	  0.19998	  0.19194	  0.39617	  0.02191	  0.65759	703.69000	 21.30	
  8.008	-13.821	  0.64913	  0.43383	  0.16906	  0.25384	  0.32659	  0.02892	  0.66156	703.69000	 21.30	
  8.008	 13.821	  0.65007	  0.43354	  0.16799	  0.32881	  0.25212	  0.03651	  0.66204	703.76001	 21.30	
  7.997	 41.563	  0.65415	  0.39516	  0.19857	  0.40075	  0.19027	  0.03809	  0.66595	703.65002	 21.40	
  7.988	 69.228	  0.64328	  0.32336	  0.25036	  0.44127	  0.15088	  0.04018	  0.65528	703.72998	 21.30	
  8.006	 96.837	  0.64614	  0.24939	  0.32381	  0.45134	  0.14388	  0.04044	  0.66114	703.64001	 21.30	
  7.997	124.550	  0.64441	  0.18388	  0.39701	  0.42026	  0.16576	  0.03428	  0.66074	703.70001	 21.30	
  7.991	152.370	  0.64089	  0.13971	  0.44813	  0.35501	  0.21497	  0.02845	  0.65840	703.59003	 21.30	
 12.009	161.059	  0.61277	  0.04891	  0.51424	  0.33440	  0.18972	  0.00687	  0.65860	703.58002	 21.30	
 12.013	142.081	  0.61516	  0.07754	  0.47546	  0.40980	  0.12884	  0.01419	  0.66004	703.63000	 21.40	
 12.006	123.113	  0.61807	  0.12584	  0.41677	  0.46965	  0.08819	  0.01749	  0.65967	703.59998	 21.30	
 12.007	104.200	  0.62080	  0.18961	  0.34392	  0.50704	  0.06484	  0.02165	  0.66169	703.64001	 21.30	
 11.989	 85.301	  0.62274	  0.26519	  0.26705	  0.51687	  0.06038	  0.02425	  0.65990	703.60999	 21.30	
 12.013	 66.294	  0.62121	  0.34310	  0.19577	  0.49574	  0.07490	  0.02636	  0.65540	703.56000	 21.30	
 12.012	 47.388	  0.62438	  0.41615	  0.14117	  0.45237	  0.10980	  0.02719	  0.65808	703.59998	 21.40	
 11.990	 28.440	  0.62526	  0.47013	  0.10297	  0.38717	  0.16194	  0.02328	  0.65901	703.66998	 21.40	
 11.991	  9.464	  0.63320	  0.50525	  0.08369	  0.31379	  0.23289	  0.01772	  0.66742	703.63000	 21.40	
 11.991	 -9.464	  0.62408	  0.49900	  0.08360	  0.23376	  0.30680	  0.01007	  0.65844	703.71002	 21.40	
 11.990	-28.440	  0.62252	  0.47014	  0.10173	  0.16420	  0.38146	  0.00522	  0.65666	703.65002	 21.40	
 12.012	-47.388	  0.62356	  0.41981	  0.14073	  0.11062	  0.45063	 -0.00176	  0.66061	703.70001	 21.40	
 12.013	-66.294	  0.61833	  0.34652	  0.19582	  0.07536	  0.49325	 -0.00504	  0.65670	703.65997	 21.40	
 11.989	-85.301	  0.62258	  0.27246	  0.26833	  0.06138	  0.51778	 -0.00692	  0.66367	703.67999	 21.40	
 12.007	-104.200	  0.61329	  0.19513	  0.34039	  0.06304	  0.50466	 -0.01024	  0.65675	703.66998	 21.40	
 12.006	-123.113	  0.61881	  0.13232	  0.41770	  0.08620	  0.47452	 -0.00820	  0.66475	703.70001	 21.40	
 12.013	-142.081	  0.61650	  0.08226	  0.47693	  0.12638	  0.41456	 -0.00451	  0.66002	703.67999	 21.40	
 12.009	-161.059	  0.61807	  0.05170	  0.51934	  0.18616	  0.34329	 -0.00132	  0.66433	703.65997	 21.40	
 16.000	180.000	  0.57325	 -0.04043	  0.57844	  0.22720	  0.23277	 -0.01946	  0.65903	703.66998	 21.40	
 15.990	-165.604	  0.56741	 -0.03044	  0.56112	  0.15476	  0.30724	 -0.02442	  0.65037	703.57001	 21.40	
 16.002	-151.165	  0.57497	 -0.01049	  0.53773	  0.09349	  0.38725	 -0.02269	  0.66037	703.69000	 21.40	
 16.002	-136.836	  0.57401	  0.02500	  0.48632	  0.04491	  0.45484	 -0.02517	  0.65746	703.70001	 21.40	
 15.995	-122.439	  0.57267	  0.07303	  0.42002	  0.00847	  0.50864	 -0.02985	  0.65452	703.69000	 21.40	
 15.993	-107.966	  0.57494	  0.13342	  0.34800	 -0.01453	  0.54770	 -0.02879	  0.65601	703.73999	 21.40	
 16.005	-93.629	  0.57885	  0.20495	  0.27471	 -0.02327	  0.56743	 -0.03172	  0.65888	703.71002	 21.40	
 15.992	-79.234	  0.57992	  0.28117	  0.20115	 -0.01864	  0.56179	 -0.02986	  0.65791	703.72998	 21.40	
 16.009	-64.774	  0.58656	  0.36104	  0.13610	 -0.00101	  0.54054	 -0.02774	  0.66281	703.77002	 21.40	
 15.997	-50.364	  0.58756	  0.43231	  0.08315	  0.03270	  0.49343	 -0.02343	  0.66043	703.64001	 21.40	
 15.997	-36.045	  0.58816	  0.49064	  0.04289	  0.07982	  0.42903	 -0.02066	  0.65692	703.59998	 21.40	
 16.000	-21.597	  0.59142	  0.53459	  0.01651	  0.14103	  0.35758	 -0.01616	  0.65967	703.65002	 21.40	
 16.003	 -7.169	  0.59619	  0.55953	  0.00175	  0.21082	  0.28073	 -0.01160	  0.66369	703.73999	 21.40	
 16.003	  7.169	  0.59016	  0.55332	  0.00418	  0.28497	  0.20393	 -0.00662	  0.65687	703.70001	 21.40	
 16.000	 21.597	  0.59240	  0.53087	  0.01737	  0.36388	  0.13424	 -0.00484	  0.65754	703.69000	 21.40	
 15.997	 36.045	  0.58989	  0.48569	  0.04566	  0.43563	  0.07540	  0.00072	  0.65714	703.66998	 21.40	
 15.997	 50.364	  0.59303	  0.42791	  0.08742	  0.49908	  0.03185	  0.00057	  0.66171	703.67999	 21.40	
 16.009	 64.774	  0.59049	  0.35358	  0.13935	  0.54253	  0.00056	  0.00125	  0.66066	703.66998	 21.40	
 15.992	 79.234	  0.58585	  0.27364	  0.20434	  0.56568	 -0.01686	  0.00296	  0.65792	703.67999	 21.40	
 16.005	 93.629	  0.58023	  0.19727	  0.27504	  0.56289	 -0.01907	  0.00153	  0.65412	703.59998	 21.40	
 15.993	107.966	  0.58014	  0.12809	  0.35097	  0.54721	 -0.01012	  0.00082	  0.65650	703.60999	 21.40	
 15.995	122.439	  0.57479	  0.06880	  0.42177	  0.50607	  0.01393	 -0.00397	  0.65396	703.65002	 21.40	
 16.002	136.836	  0.57923	  0.02118	  0.49144	  0.45300	  0.05019	 -0.00650	  0.66117	703.67999	 21.40	
 16.002	151.165	  0.57719	 -0.01396	  0.54024	  0.38363	  0.09928	 -0.00960	  0.66113	703.65002	 21.40	
 15.990	165.604	  0.57793	 -0.03416	  0.57275	  0.30690	  0.16247	 -0.01298	  0.66300	703.59998	 21.40	
 20.003	168.362	  0.52364	 -0.11588	  0.60949	  0.26465	  0.12503	 -0.03649	  0.65983	703.63000	 21.40	
 20.008	156.764	  0.52798	 -0.10187	  0.58780	  0.34231	  0.06298	 -0.03774	  0.66204	703.70001	 21.40	
 20.000	145.147	  0.52339	 -0.07756	  0.54196	  0.41493	  0.00641	 -0.03814	  0.65680	703.71997	 21.40	
 19.995	133.545	  0.52989	 -0.04104	  0.49207	  0.48561	 -0.03296	 -0.02808	  0.66089	703.71002	 21.40	
 20.009	121.926	  0.53090	  0.00498	  0.42735	  0.53892	 -0.06333	 -0.02784	  0.65998	703.78998	 21.40	
 20.005	110.327	  0.53265	  0.06267	  0.35246	  0.57888	 -0.08433	 -0.02348	  0.65629	703.72998	 21.40	
 19.989	 98.733	  0.53861	  0.12781	  0.27882	  0.60946	 -0.10060	 -0.02106	  0.66442	703.71997	 21.40	
 19.999	 87.075	  0.53547	  0.20030	  0.20093	  0.61252	 -0.10256	 -0.01940	  0.65945	703.77002	 21.40	
 19.992	 75.457	  0.53936	  0.27822	  0.13461	  0.60241	 -0.09183	 -0.01981	  0.65883	703.59998	 21.40	
 20.009	 63.844	  0.54029	  0.35458	  0.07553	  0.57245	 -0.07470	 -0.01635	  0.65714	703.58002	 21.40	
 19.989	 52.269	  0.54523	  0.42953	  0.02313	  0.53172	 -0.04684	 -0.01817	  0.66072	703.67999	 21.40	
 19.999	 40.602	  0.53990	  0.49097	 -0.01946	  0.46845	 -0.00898	 -0.02239	  0.65484	703.70001	 21.40	
 20.004	 29.051	  0.54240	  0.54424	 -0.05026	  0.40242	  0.03876	 -0.02299	  0.65596	703.64001	 21.40	
 20.005	 17.433	  0.54335	  0.58176	 -0.07166	  0.32666	  0.09848	 -0.02678	  0.65817	703.65997	 21.40	
 20.006	  5.780	  0.54300	  0.59855	 -0.07958	  0.25028	  0.16732	 -0.02595	  0.65642	703.62000	 21.40	
 20.006	 -5.780	  0.54659	  0.60266	 -0.08006	  0.17716	  0.24267	 -0.02949	  0.66082	703.65002	 21.40	
 20.005	-17.433	  0.54411	  0.58453	 -0.07153	  0.10646	  0.31919	 -0.03319	  0.65938	703.63000	 21.40	
 20.004	-29.051	  0.54073	  0.54766	 -0.05049	  0.04579	  0.39416	 -0.03818	  0.65778	703.59998	 21.40	
 19.999	-40.602	  0.53957	  0.49804	 -0.02045	 -0.00517	  0.46399	 -0.03894	  0.65929	703.65002	 21.40	
 19.989	-52.269	  0.53657	  0.43328	  0.02160	 -0.04439	  0.52194	 -0.04031	  0.65778	703.70001	 21.40	
 20.009	-63.844	  0.53656	  0.36308	  0.07079	 -0.07464	  0.57022	 -0.04112	  0.66087	703.58002	 21.40	
 19.992	-75.457	  0.53044	  0.28490	  0.13293	 -0.08971	  0.59472	 -0.04158	  0.65459	703.62000	 21.40	
 19.999	-87.075	  0.53292	  0.20972	  0.20192	 -0.10025	  0.61200	 -0.04221	  0.66131	703.66998	 21.40	
 19.989	-98.733	  0.52926	  0.13619	  0.27490	 -0.09897	  0.60297	 -0.04307	  0.65922	703.65997	 21.40	
 20.005	-110.327	  0.53081	  0.07035	  0.35166	 -0.09070	  0.58602	 -0.04397	  0.66504	703.59998	 21.40	
 20.009	-121.926	  0.52634	  0.01135	  0.42245	 -0.07101	  0.54355	 -0.04435	  0.66104	703.66998	 21.40	
 19.995	-133.545	  0.52535	 -0.03506	  0.48831	 -0.03813	  0.48729	 -0.04303	  0.66036	703.71002	 21.40	
 20.000	-145.147	  0.52282	 -0.07134	  0.54152	  0.00318	  0.42106	 -0.04479	  0.65873	703.64001	 21.40	
 20.008	-156.764	  0.52314	 -0.09781	  0.58399	  0.05533	  0.34780	 -0.04180	  0.65934	703.67999	 21.40	
 20.003	-168.362	  0.52245	 -0.11423	  0.60749	  0.11747	  0.27075	 -0.03966	  0.65790	703.59998	 21.40	
 20.000	180.000	  0.51996	 -0.11933	  0.61335	  0.18784	  0.19356	 -0.04427	  0.65664	703.77002	 21.40	
