FileType=PCF
NHL=14
Date=08/26/17	13:40:27
Facility=APL
Serial=16328-8
Customer=NASA
NP=6
Mach=0.050000
Calibration=1:1
CalPts=490
TstPts=95
PortNumbering=AP Standard
Units=Torr C m/s kg/m^3 deg mm 
Theta[deg]	Phi[deg]	P1[Torr]	P2[Torr]	P3[Torr]	P4[Torr]	P5[Torr]	P6[Torr]	Pt[Torr]	Ps[Abs,Torr]	Ts[C]	
  0.000	  0.000	  1.28181	  0.68769	  0.67863	  0.68265	  0.69473	  0.00952	  1.27338	708.51398	 23.20	
  1.691	128.401	  1.28229	  0.64406	  0.69978	  0.71580	  0.64181	  0.00730	  1.27524	708.58698	 23.20	
  1.692	 77.194	  1.27800	  0.68582	  0.64913	  0.72294	  0.62844	  0.00582	  1.27065	708.56201	 23.20	
  1.699	 26.182	  1.27976	  0.72582	  0.61627	  0.69156	  0.65579	  0.00672	  1.27268	708.39301	 23.10	
  1.699	-26.182	  1.27856	  0.72434	  0.61518	  0.64171	  0.70381	  0.00619	  1.27008	708.38202	 23.10	
  1.692	-77.194	  1.28524	  0.68945	  0.65205	  0.61809	  0.74021	  0.00568	  1.27692	708.40997	 23.20	
  1.691	-128.401	  1.28454	  0.64064	  0.70244	  0.62856	  0.72773	  0.00610	  1.27566	708.45697	 23.20	
  1.700	180.000	  1.28510	  0.62435	  0.72540	  0.67367	  0.68202	  0.00692	  1.27681	708.37500	 23.20	
  3.400	180.000	  1.28329	  0.55130	  0.79053	  0.66682	  0.67548	  0.00361	  1.27759	708.28900	 23.20	
  3.388	-152.325	  1.28438	  0.56319	  0.77704	  0.61180	  0.73510	  0.00343	  1.27847	708.18201	 23.20	
  3.397	-124.529	  1.28731	  0.60000	  0.73581	  0.56776	  0.78564	  0.00160	  1.28141	708.33301	 23.10	
  3.399	-96.763	  1.27730	  0.64984	  0.67354	  0.54408	  0.80163	  0.00106	  1.27200	708.31702	 23.10	
  3.394	-69.283	  1.27889	  0.71058	  0.61393	  0.55045	  0.79406	  0.00104	  1.27272	708.78900	 23.10	
  3.400	-41.398	  1.27369	  0.75846	  0.56586	  0.57874	  0.75468	  0.00262	  1.26809	708.33600	 23.10	
  3.401	-14.021	  1.27396	  0.78893	  0.54123	  0.62732	  0.70112	  0.00289	  1.26890	709.83899	 23.10	
  3.401	 14.021	  1.27534	  0.79182	  0.54203	  0.68858	  0.64228	  0.00485	  1.26931	708.32800	 23.10	
  3.400	 41.398	  1.27637	  0.76280	  0.56653	  0.74282	  0.59348	  0.00374	  1.27058	708.17401	 23.10	
  3.394	 69.283	  1.27909	  0.71439	  0.61469	  0.78171	  0.56579	  0.00346	  1.27352	708.34399	 23.10	
  3.399	 96.763	  1.27967	  0.65657	  0.67021	  0.79066	  0.56012	  0.00161	  1.27367	709.76398	 23.10	
  3.397	124.529	  1.27558	  0.60190	  0.72555	  0.76706	  0.57718	  0.00307	  1.27022	708.23798	 23.10	
  3.388	152.325	  1.28143	  0.56845	  0.77098	  0.72549	  0.61984	  0.00364	  1.27552	708.24103	 23.10	
  5.099	161.165	  1.27278	  0.48861	  0.83806	  0.72041	  0.60532	 -0.00043	  1.27264	708.84302	 23.10	
  5.109	142.013	  1.28141	  0.52158	  0.80954	  0.78331	  0.55683	 -0.00060	  1.28215	708.36401	 23.10	
  5.095	123.033	  1.27594	  0.56270	  0.75490	  0.82165	  0.51665	 -0.00321	  1.27656	708.33600	 23.20	
  5.105	104.191	  1.27542	  0.61716	  0.69585	  0.84974	  0.49283	 -0.00373	  1.27662	708.93597	 23.10	
  5.093	 85.207	  1.27836	  0.68144	  0.63353	  0.85393	  0.49061	 -0.00386	  1.27831	708.24103	 23.10	
  5.104	 66.290	  1.27297	  0.74065	  0.57128	  0.83316	  0.50096	 -0.00333	  1.27369	708.18701	 23.20	
  5.094	 47.331	  1.27187	  0.79602	  0.52133	  0.79561	  0.53072	 -0.00120	  1.27335	708.33099	 23.20	
  5.089	 28.397	  1.27158	  0.83520	  0.48605	  0.74313	  0.57567	  0.00005	  1.27282	708.23297	 23.10	
  5.096	  9.576	  1.27273	  0.85605	  0.46894	  0.68218	  0.63353	 -0.00119	  1.27325	708.30200	 23.10	
  5.096	 -9.576	  1.27460	  0.85715	  0.46911	  0.61841	  0.69844	 -0.00154	  1.27521	708.24597	 23.10	
  5.089	-28.397	  1.27564	  0.83315	  0.48962	  0.56214	  0.76041	 -0.00175	  1.27680	709.51001	 23.20	
  5.094	-47.331	  1.27272	  0.78949	  0.52422	  0.51483	  0.81113	 -0.00353	  1.27342	708.26001	 23.10	
  5.104	-66.290	  1.27464	  0.73513	  0.57427	  0.48312	  0.85015	 -0.00606	  1.27568	708.33398	 23.20	
  5.093	-85.207	  1.27387	  0.67255	  0.63519	  0.47218	  0.86600	 -0.00493	  1.27433	708.26801	 23.20	
  5.105	-104.191	  1.27845	  0.60974	  0.70222	  0.47685	  0.86501	 -0.00557	  1.27834	708.38702	 23.20	
  5.095	-123.033	  1.27391	  0.55235	  0.75976	  0.50001	  0.83449	 -0.00372	  1.27413	708.26898	 23.10	
  5.109	-142.013	  1.27975	  0.51164	  0.81320	  0.54403	  0.79187	 -0.00207	  1.27909	708.33099	 23.10	
  5.099	-161.165	  1.27138	  0.48249	  0.83887	  0.59458	  0.72825	 -0.00167	  1.27108	708.25201	 23.20	
  5.100	180.000	  1.27347	  0.47526	  0.85189	  0.65688	  0.66672	 -0.00129	  1.27335	708.26099	 23.20	
  6.800	180.000	  1.26974	  0.40502	  0.91469	  0.65040	  0.66011	 -0.00579	  1.27970	708.26801	 23.20	
  6.796	-166.229	  1.26651	  0.40843	  0.90497	  0.58767	  0.71909	 -0.00710	  1.27702	708.24103	 23.20	
  6.808	-152.311	  1.26354	  0.42422	  0.88038	  0.52809	  0.77757	 -0.00848	  1.27408	708.19299	 23.10	
  6.795	-138.383	  1.26376	  0.45738	  0.84224	  0.47936	  0.83281	 -0.00802	  1.27354	709.60602	 23.10	
  6.792	-124.591	  1.26690	  0.49979	  0.79544	  0.43995	  0.87894	 -0.01066	  1.27728	708.41998	 23.20	
  6.787	-110.754	  1.26686	  0.55309	  0.73631	  0.41244	  0.91070	 -0.01307	  1.27724	708.25201	 23.10	
  6.800	-96.985	  1.26396	  0.61104	  0.67282	  0.39743	  0.92469	 -0.01382	  1.27378	708.22302	 23.20	
  6.800	-83.015	  1.26545	  0.67605	  0.60966	  0.39786	  0.92542	 -0.01337	  1.27677	708.34698	 23.20	
  6.787	-69.246	  1.26420	  0.73613	  0.54971	  0.40902	  0.90866	 -0.01352	  1.27551	708.28003	 23.20	
  6.792	-55.409	  1.25988	  0.79225	  0.49654	  0.43411	  0.87509	 -0.01039	  1.27150	708.30200	 23.20	
  6.795	-41.617	  1.26397	  0.84623	  0.45167	  0.47172	  0.83389	 -0.01069	  1.27599	708.23700	 23.20	
  6.808	-27.689	  1.26702	  0.88756	  0.41991	  0.52240	  0.77934	 -0.00851	  1.27872	708.17798	 23.20	
  6.796	-13.771	  1.26179	  0.90866	  0.39779	  0.57528	  0.71696	 -0.00825	  1.27459	708.19299	 23.20	
  6.800	  0.000	  1.26479	  0.92115	  0.39051	  0.63708	  0.65662	 -0.00831	  1.27737	708.26898	 23.20	
  6.796	 13.771	  1.26617	  0.91527	  0.39772	  0.70216	  0.59523	 -0.00694	  1.27854	708.21600	 23.20	
  6.808	 27.689	  1.26097	  0.88958	  0.41402	  0.76021	  0.53621	 -0.00798	  1.27324	709.03900	 23.20	
  6.795	 41.617	  1.26665	  0.85484	  0.44963	  0.81840	  0.49097	 -0.00795	  1.27785	708.31598	 23.20	
  6.792	 55.409	  1.26328	  0.80312	  0.49121	  0.86088	  0.45161	 -0.00970	  1.27524	708.02600	 23.20	
  6.787	 69.246	  1.26850	  0.74935	  0.54548	  0.89621	  0.42880	 -0.01157	  1.27971	708.27197	 23.20	
  6.800	 83.015	  1.26263	  0.68476	  0.60256	  0.91117	  0.41397	 -0.01039	  1.27448	708.17902	 23.20	
  6.800	 96.985	  1.26234	  0.62184	  0.66540	  0.91231	  0.41386	 -0.01124	  1.27467	708.06403	 23.20	
  6.787	110.754	  1.26431	  0.56334	  0.72824	  0.89835	  0.42783	 -0.01134	  1.27588	708.12000	 23.20	
  6.792	124.591	  1.26907	  0.51228	  0.79040	  0.87155	  0.45666	 -0.00994	  1.28035	708.67902	 23.20	
  6.795	138.383	  1.26318	  0.46736	  0.83511	  0.82331	  0.49336	 -0.00935	  1.27344	708.04102	 23.20	
  6.808	152.311	  1.26859	  0.43390	  0.87935	  0.77430	  0.54166	 -0.00795	  1.27935	708.20599	 23.20	
  6.796	166.229	  1.25943	  0.40831	  0.89826	  0.70897	  0.59230	 -0.00649	  1.27013	708.00098	 23.20	
  8.491	168.704	  1.24933	  0.33348	  0.95780	  0.69921	  0.57800	 -0.01271	  1.27397	708.12000	 23.20	
  8.502	157.493	  1.25277	  0.34997	  0.94112	  0.76349	  0.52077	 -0.01444	  1.27893	708.13898	 23.20	
  8.494	146.194	  1.24759	  0.38065	  0.90183	  0.82000	  0.46795	 -0.01587	  1.27366	708.19800	 23.20	
  8.495	135.039	  1.24950	  0.41723	  0.86056	  0.87312	  0.42281	 -0.01575	  1.27515	708.16400	 23.20	
  8.487	123.723	  1.24720	  0.46241	  0.80494	  0.91310	  0.38561	 -0.01777	  1.27304	708.17902	 23.20	
  8.492	112.575	  1.25081	  0.51625	  0.74795	  0.94671	  0.35880	 -0.02128	  1.27776	708.28497	 23.20	
  8.510	101.220	  1.24759	  0.57534	  0.68211	  0.96473	  0.34132	 -0.02260	  1.27394	709.53601	 23.20	
  8.500	 90.000	  1.24688	  0.63818	  0.61766	  0.96838	  0.33595	 -0.02094	  1.27303	708.14697	 23.20	
  8.510	 78.780	  1.25195	  0.70577	  0.55675	  0.96539	  0.34199	 -0.01932	  1.27832	708.16699	 23.20	
  8.492	 67.425	  1.24853	  0.76788	  0.49502	  0.94121	  0.35645	 -0.02024	  1.27605	709.91498	 23.20	
  8.487	 56.277	  1.24396	  0.82305	  0.44041	  0.90480	  0.38096	 -0.01782	  1.27063	708.71301	 23.20	
  8.495	 44.961	  1.24548	  0.87641	  0.39525	  0.86154	  0.41812	 -0.01638	  1.27364	708.15302	 23.20	
  8.494	 33.806	  1.24870	  0.91990	  0.36020	  0.80879	  0.46546	 -0.01570	  1.27632	708.08801	 23.20	
  8.502	 22.507	  1.24416	  0.94879	  0.33286	  0.74728	  0.51706	 -0.01476	  1.27267	708.29498	 23.20	
  8.491	 11.296	  1.24360	  0.96604	  0.31534	  0.68212	  0.57516	 -0.01543	  1.27171	709.03497	 23.20	
  8.500	  0.000	  1.24575	  0.97400	  0.31208	  0.61957	  0.63977	 -0.01607	  1.27446	708.10498	 23.20	
  8.491	-11.296	  1.24324	  0.96364	  0.31996	  0.55646	  0.70305	 -0.01498	  1.27069	708.15100	 23.20	
  8.502	-22.507	  1.24715	  0.94556	  0.33802	  0.49976	  0.76741	 -0.01583	  1.27489	708.28601	 23.20	
  8.494	-33.806	  1.24579	  0.91027	  0.36433	  0.44472	  0.82635	 -0.01859	  1.27393	708.17102	 23.20	
  8.495	-44.961	  1.24616	  0.86682	  0.40223	  0.39925	  0.88023	 -0.01930	  1.27495	709.78198	 23.20	
  8.487	-56.277	  1.24373	  0.81101	  0.44896	  0.36499	  0.91998	 -0.01991	  1.27173	709.51001	 23.20	
  8.492	-67.425	  1.24926	  0.75522	  0.50407	  0.34012	  0.95700	 -0.02329	  1.27651	709.89001	 23.20	
  8.510	-78.780	  1.24818	  0.69001	  0.56472	  0.32352	  0.97708	 -0.02447	  1.27618	709.96002	 23.20	
  8.500	-90.000	  1.24357	  0.62218	  0.62477	  0.31745	  0.97929	 -0.02567	  1.27115	709.75403	 23.20	
  8.510	-101.220	  1.24803	  0.56168	  0.69174	  0.32484	  0.97571	 -0.02237	  1.27365	708.15002	 23.20	
  8.492	-112.575	  1.24916	  0.50325	  0.75622	  0.34493	  0.95544	 -0.01990	  1.27350	709.04602	 23.20	
  8.487	-123.723	  1.24910	  0.45063	  0.81481	  0.37225	  0.92358	 -0.01746	  1.27485	708.41498	 23.20	
  8.495	-135.039	  1.24596	  0.40487	  0.86464	  0.40872	  0.87866	 -0.01453	  1.27093	709.60602	 23.20	
  8.494	-146.194	  1.25113	  0.36862	  0.91094	  0.45469	  0.83023	 -0.01690	  1.27627	709.08698	 23.20	
  8.502	-157.493	  1.24900	  0.34497	  0.94168	  0.51195	  0.76896	 -0.01506	  1.27434	707.98999	 23.20	
  8.491	-168.704	  1.24954	  0.33119	  0.96024	  0.57123	  0.70764	 -0.01317	  1.27466	708.25403	 23.20	
  8.500	180.000	  1.25223	  0.32801	  0.96845	  0.63624	  0.64454	 -0.01247	  1.27789	708.10303	 23.20	
 10.200	180.000	  1.23083	  0.24917	  1.01925	  0.61824	  0.62415	 -0.02161	  1.27538	708.13599	 23.20	
 10.191	-170.497	  1.23005	  0.25195	  1.01266	  0.55357	  0.68810	 -0.02289	  1.27390	708.06897	 23.20	
 10.210	-161.034	  1.23218	  0.26461	  1.00006	  0.49355	  0.75423	 -0.02338	  1.27752	708.11902	 23.20	
 10.194	-151.526	  1.23777	  0.28769	  0.97623	  0.43786	  0.82064	 -0.02245	  1.28330	708.27100	 23.20	
 10.190	-142.105	  1.23164	  0.31495	  0.93344	  0.38274	  0.87321	 -0.02316	  1.27659	709.77802	 23.20	
 10.215	-132.646	  1.23016	  0.35322	  0.88703	  0.33881	  0.92289	 -0.02519	  1.27569	709.79999	 23.20	
 10.203	-123.092	  1.22822	  0.39948	  0.83143	  0.30155	  0.96460	 -0.02679	  1.27369	708.15601	 23.20	
 10.192	-113.678	  1.22892	  0.45217	  0.77142	  0.27220	  0.99915	 -0.03009	  1.27528	708.10797	 23.20	
 10.208	-104.249	  1.22238	  0.50731	  0.70475	  0.25169	  1.01609	 -0.03099	  1.26933	708.09100	 23.20	
 10.210	-94.801	  1.22808	  0.57113	  0.64375	  0.24200	  1.03317	 -0.03414	  1.27456	708.06000	 23.20	
 10.210	-85.199	  1.22225	  0.63673	  0.57344	  0.23987	  1.02929	 -0.03259	  1.27003	709.66400	 23.20	
 10.208	-75.751	  1.22312	  0.70170	  0.51216	  0.24852	  1.01876	 -0.03294	  1.27144	709.71802	 23.20	
 10.192	-66.322	  1.22519	  0.76612	  0.45399	  0.26719	  0.99687	 -0.03222	  1.27414	709.32202	 23.20	
 10.203	-56.908	  1.22437	  0.82728	  0.39985	  0.29400	  0.96337	 -0.03112	  1.27383	708.19897	 23.20	
 10.215	-47.354	  1.22801	  0.88579	  0.35105	  0.32893	  0.92337	 -0.02927	  1.27692	708.79797	 23.20	
 10.190	-37.895	  1.21971	  0.92654	  0.30958	  0.36785	  0.86749	 -0.02768	  1.26852	708.12299	 23.20	
 10.194	-28.474	  1.22304	  0.96706	  0.27934	  0.42015	  0.81166	 -0.02577	  1.27197	709.67102	 23.20	
 10.210	-18.966	  1.22502	  1.00037	  0.25566	  0.47675	  0.75096	 -0.02573	  1.27417	708.39899	 23.20	
 10.191	 -9.503	  1.22421	  1.01538	  0.24173	  0.53664	  0.68657	 -0.02402	  1.27230	707.97900	 23.20	
 10.200	  0.000	  1.22414	  1.02435	  0.23521	  0.59960	  0.62179	 -0.02335	  1.27264	708.35901	 23.20	
 10.191	  9.503	  1.22576	  1.02068	  0.24049	  0.66804	  0.55828	 -0.02279	  1.27458	709.15302	 23.20	
 10.210	 18.966	  1.22453	  1.00490	  0.25183	  0.73098	  0.49726	 -0.02362	  1.27304	708.04401	 23.20	
 10.194	 28.474	  1.22375	  0.97734	  0.27318	  0.79297	  0.43976	 -0.02584	  1.27198	709.74597	 23.20	
 10.190	 37.895	  1.22584	  0.94127	  0.30491	  0.85183	  0.39124	 -0.02546	  1.27442	709.73700	 23.20	
 10.215	 47.354	  1.22594	  0.89684	  0.34236	  0.90387	  0.34777	 -0.02649	  1.27583	709.71802	 23.20	
 10.203	 56.908	  1.22532	  0.84165	  0.39067	  0.94568	  0.31342	 -0.03042	  1.27297	709.71301	 23.20	
 10.192	 66.322	  1.22609	  0.78302	  0.44370	  0.98124	  0.28650	 -0.02943	  1.27375	709.64801	 23.20	
 10.208	 75.751	  1.22624	  0.72002	  0.50265	  1.00525	  0.26993	 -0.03161	  1.27397	709.77197	 23.20	
 10.210	 85.199	  1.22697	  0.65470	  0.56549	  1.01832	  0.26083	 -0.03292	  1.27293	709.82800	 23.20	
 10.210	 94.801	  1.22431	  0.58805	  0.62983	  1.01743	  0.26020	 -0.03209	  1.27054	709.80298	 23.20	
 10.208	104.249	  1.22420	  0.52533	  0.69425	  1.00735	  0.26976	 -0.03329	  1.27125	709.61902	 23.20	
 10.192	113.678	  1.23027	  0.47131	  0.76130	  0.99025	  0.29175	 -0.03098	  1.27567	709.76099	 23.20	
 10.203	123.092	  1.22871	  0.41618	  0.82024	  0.95742	  0.31686	 -0.02855	  1.27461	709.86700	 23.20	
 10.215	132.646	  1.22951	  0.36699	  0.87733	  0.91763	  0.35114	 -0.02718	  1.27456	709.74902	 23.20	
 10.190	142.105	  1.23449	  0.32938	  0.92770	  0.87006	  0.39655	 -0.02486	  1.28063	708.16699	 23.20	
 10.194	151.526	  1.23186	  0.29411	  0.96564	  0.81109	  0.44518	 -0.02405	  1.27700	709.93701	 23.20	
 10.210	161.034	  1.22976	  0.27126	  0.99420	  0.74896	  0.50014	 -0.02136	  1.27546	709.53802	 23.20	
 10.191	170.497	  1.22834	  0.25527	  1.00899	  0.68375	  0.55918	 -0.02227	  1.27305	709.84998	 23.20	
 11.899	171.783	  1.20555	  0.17866	  1.05884	  0.66552	  0.53783	 -0.03090	  1.27505	708.17401	 23.20	
 11.890	163.610	  1.20310	  0.18966	  1.04146	  0.72734	  0.47676	 -0.03092	  1.27122	708.16699	 23.20	
 11.889	155.445	  1.20774	  0.21182	  1.02002	  0.79388	  0.42094	 -0.03246	  1.27746	708.32800	 23.20	
 11.909	147.299	  1.20905	  0.24062	  0.98747	  0.85596	  0.36911	 -0.03375	  1.27888	708.18701	 23.20	
 11.902	139.148	  1.20586	  0.27450	  0.94125	  0.90783	  0.32039	 -0.03629	  1.27614	708.29700	 23.20	
 11.894	130.867	  1.20675	  0.31810	  0.89148	  0.95579	  0.28198	 -0.03716	  1.27656	708.21002	 23.20	
 11.897	122.732	  1.20381	  0.36472	  0.83243	  0.99414	  0.24634	 -0.04025	  1.27308	708.08801	 23.20	
 11.903	114.597	  1.20864	  0.41941	  0.77694	  1.03133	  0.22113	 -0.04158	  1.27868	709.80499	 23.20	
 11.893	106.346	  1.20500	  0.47757	  0.70861	  1.05289	  0.19907	 -0.04386	  1.27562	708.66302	 23.30	
 11.892	 98.155	  1.20298	  0.53952	  0.64078	  1.06491	  0.18749	 -0.04463	  1.27399	709.82800	 23.20	
 11.900	 90.000	  1.20244	  0.60268	  0.57651	  1.06848	  0.18201	 -0.04400	  1.27362	708.20898	 23.20	
 11.892	 81.845	  1.20704	  0.67159	  0.51415	  1.06559	  0.18807	 -0.04233	  1.27850	709.71503	 23.20	
 11.893	 73.654	  1.20301	  0.73420	  0.45022	  1.04671	  0.19751	 -0.04245	  1.27473	709.79999	 23.20	
 11.903	 65.403	  1.20456	  0.79956	  0.39282	  1.02264	  0.21709	 -0.04059	  1.27688	709.82501	 23.20	
 11.897	 57.268	  1.19907	  0.85450	  0.33821	  0.98335	  0.24262	 -0.03779	  1.27150	709.88098	 23.20	
 11.894	 49.133	  1.20227	  0.91066	  0.29199	  0.94169	  0.27764	 -0.03646	  1.27551	709.54999	 23.20	
 11.902	 40.852	  1.19963	  0.95819	  0.24922	  0.89046	  0.31616	 -0.03481	  1.27407	709.05603	 23.20	
 11.909	 32.701	  1.19909	  0.99889	  0.21601	  0.83445	  0.36388	 -0.03442	  1.27386	709.76099	 23.30	
 11.889	 24.555	  1.19730	  1.02800	  0.19050	  0.77139	  0.41627	 -0.03571	  1.27040	708.11902	 23.20	
 11.890	 16.390	  1.19713	  1.05149	  0.17218	  0.70814	  0.47400	 -0.03381	  1.27193	709.72400	 23.20	
 11.899	  8.217	  1.19871	  1.06702	  0.16220	  0.64439	  0.53564	 -0.03107	  1.27191	709.77197	 23.30	
 11.900	  0.000	  1.19627	  1.06859	  0.15824	  0.57708	  0.59995	 -0.03237	  1.27001	709.69800	 23.20	
 11.899	 -8.217	  1.19762	  1.06448	  0.15996	  0.51108	  0.66558	 -0.03522	  1.27263	709.78802	 23.20	
 11.890	-16.390	  1.19873	  1.04885	  0.17474	  0.45297	  0.73099	 -0.03268	  1.27238	709.72302	 23.30	
 11.889	-24.555	  1.19905	  1.02338	  0.19482	  0.39428	  0.79594	 -0.03435	  1.27355	708.13000	 23.30	
 11.909	-32.701	  1.20275	  0.99289	  0.22235	  0.34426	  0.85761	 -0.03577	  1.27755	709.78497	 23.30	
 11.902	-40.852	  1.19687	  0.94388	  0.25724	  0.29615	  0.90823	 -0.03762	  1.27112	708.83801	 23.30	
 11.894	-49.133	  1.20208	  0.89646	  0.30182	  0.25583	  0.96303	 -0.03776	  1.27653	709.76398	 23.20	
 11.897	-57.268	  1.19917	  0.83857	  0.34833	  0.22241	  1.00175	 -0.03950	  1.27484	709.76300	 23.30	
 11.903	-65.403	  1.20514	  0.78155	  0.40445	  0.19750	  1.04059	 -0.04068	  1.28061	709.73798	 23.30	
 11.893	-73.654	  1.19952	  0.71178	  0.46140	  0.17710	  1.05884	 -0.04400	  1.27315	709.78802	 23.20	
 11.892	-81.845	  1.20245	  0.64808	  0.52452	  0.16770	  1.07585	 -0.04436	  1.27478	709.67798	 23.20	
 11.900	-90.000	  1.20272	  0.58191	  0.58856	  0.16363	  1.08053	 -0.04545	  1.27468	709.77802	 23.20	
 11.892	-98.155	  1.20742	  0.51832	  0.65707	  0.16824	  1.07991	 -0.04592	  1.27975	709.73297	 23.20	
 11.893	-106.346	  1.20864	  0.45808	  0.72336	  0.18292	  1.06511	 -0.04147	  1.28064	709.75403	 23.20	
 11.903	-114.597	  1.20627	  0.39902	  0.78665	  0.20276	  1.03927	 -0.03943	  1.27683	707.99500	 23.20	
 11.897	-122.732	  1.20925	  0.34765	  0.84780	  0.23213	  1.00587	 -0.03713	  1.27941	708.73297	 23.20	
 11.894	-130.867	  1.21099	  0.30151	  0.90358	  0.26785	  0.96524	 -0.03287	  1.28071	709.11298	 23.20	
 11.902	-139.148	  1.21162	  0.26000	  0.95519	  0.30984	  0.91672	 -0.03434	  1.28223	708.32300	 23.20	
 11.909	-147.299	  1.20903	  0.22717	  0.99314	  0.35853	  0.85860	 -0.03249	  1.27822	709.69800	 23.30	
 11.889	-155.445	  1.20991	  0.20280	  1.02744	  0.41328	  0.79896	 -0.03429	  1.27934	708.07202	 23.30	
 11.890	-163.610	  1.20172	  0.18190	  1.04510	  0.46862	  0.73052	 -0.03593	  1.27011	709.70898	 23.20	
 11.899	-171.783	  1.19958	  0.17205	  1.05634	  0.52947	  0.66512	 -0.03339	  1.26792	709.76300	 23.30	
 11.900	180.000	  1.21125	  0.17167	  1.07081	  0.60038	  0.60585	 -0.03116	  1.28047	709.69299	 23.30	
 13.600	180.000	  1.18325	  0.09433	  1.11552	  0.57833	  0.58178	 -0.04183	  1.28258	709.02301	 23.30	
 13.608	-172.853	  1.18300	  0.09788	  1.11000	  0.51458	  0.64571	 -0.04367	  1.28028	709.59698	 23.30	
 13.611	-165.583	  1.17933	  0.10436	  1.09539	  0.44898	  0.70939	 -0.04329	  1.27722	708.47198	 23.30	
 13.601	-158.353	  1.17761	  0.11969	  1.07203	  0.38754	  0.77338	 -0.04396	  1.27482	709.80902	 23.30	
 13.609	-151.210	  1.18107	  0.14131	  1.04760	  0.33379	  0.83727	 -0.04307	  1.27965	709.10498	 23.30	
 13.611	-143.999	  1.17592	  0.17097	  1.00534	  0.28237	  0.89153	 -0.04272	  1.27376	708.40399	 23.20	
 13.601	-136.825	  1.18074	  0.20621	  0.96516	  0.23734	  0.94964	 -0.04118	  1.27949	708.13397	 23.20	
 13.596	-129.640	  1.17442	  0.24443	  0.90980	  0.19421	  0.99341	 -0.04493	  1.27237	709.43597	 23.20	
 13.611	-122.431	  1.18002	  0.29362	  0.85790	  0.16153	  1.03989	 -0.04535	  1.27964	708.06000	 23.30	
 13.604	-115.211	  1.17682	  0.34402	  0.79475	  0.13200	  1.07102	 -0.04827	  1.27639	709.69800	 23.30	
 13.595	-108.042	  1.17697	  0.40039	  0.73079	  0.11046	  1.09762	 -0.05100	  1.27713	709.59900	 23.30	
 13.607	-100.793	  1.17666	  0.46102	  0.66626	  0.09651	  1.11526	 -0.04984	  1.27763	709.71503	 23.30	
 13.601	-93.617	  1.17937	  0.52590	  0.60275	  0.08961	  1.12668	 -0.05139	  1.28107	708.13098	 23.30	
 13.601	-86.383	  1.17234	  0.58949	  0.53355	  0.08866	  1.12078	 -0.05046	  1.27447	708.20099	 23.30	
 13.607	-79.207	  1.17008	  0.65412	  0.46863	  0.09301	  1.11144	 -0.04794	  1.27275	709.65302	 23.30	
 13.595	-71.958	  1.17136	  0.72188	  0.40812	  0.10870	  1.09407	 -0.04991	  1.27383	707.99500	 23.30	
 13.604	-64.789	  1.17125	  0.78547	  0.35042	  0.12507	  1.07081	 -0.04621	  1.27595	709.59497	 23.30	
 13.611	-57.569	  1.17346	  0.84955	  0.29656	  0.15104	  1.03834	 -0.04648	  1.27840	709.61200	 23.30	
 13.596	-50.360	  1.16806	  0.90192	  0.24717	  0.18186	  0.99287	 -0.04577	  1.27166	709.65399	 23.30	
 13.601	-43.175	  1.17304	  0.95808	  0.20666	  0.22198	  0.94940	 -0.04520	  1.27721	708.26398	 23.30	
 13.611	-36.001	  1.16836	  1.00057	  0.16906	  0.26607	  0.89150	 -0.04256	  1.27193	709.59900	 23.30	
 13.609	-28.790	  1.16574	  1.03720	  0.13774	  0.31420	  0.83217	 -0.04050	  1.26977	707.91699	 23.30	
 13.601	-21.647	  1.16949	  1.07068	  0.11433	  0.36781	  0.77318	 -0.04086	  1.27302	709.49597	 23.30	
 13.611	-14.417	  1.16984	  1.09470	  0.09659	  0.42804	  0.70792	 -0.03815	  1.27336	709.65601	 23.30	
 13.608	 -7.147	  1.16921	  1.10782	  0.08662	  0.49047	  0.64258	 -0.03882	  1.27354	708.32501	 23.30	
 13.600	  0.000	  1.17248	  1.11601	  0.08197	  0.55419	  0.57914	 -0.03808	  1.27593	709.50201	 23.30	
 13.608	  7.147	  1.17175	  1.11319	  0.08507	  0.62063	  0.51446	 -0.03838	  1.27647	709.46198	 23.30	
 13.611	 14.417	  1.16961	  1.09957	  0.09345	  0.68565	  0.45076	 -0.04017	  1.27417	709.73700	 23.30	
 13.601	 21.647	  1.17058	  1.08015	  0.10954	  0.74960	  0.39354	 -0.04038	  1.27556	709.69800	 23.30	
 13.609	 28.790	  1.17135	  1.05209	  0.13195	  0.81301	  0.33872	 -0.04395	  1.27483	709.59698	 23.30	
 13.611	 36.001	  1.16953	  1.01335	  0.16243	  0.87039	  0.28905	 -0.04098	  1.27291	709.66199	 23.30	
 13.601	 43.175	  1.17476	  0.97329	  0.19859	  0.92775	  0.24629	 -0.04506	  1.27796	707.98700	 23.30	
 13.596	 50.360	  1.17989	  0.92717	  0.24082	  0.98226	  0.20676	 -0.04799	  1.28204	707.97302	 23.30	
 13.611	 57.569	  1.17140	  0.86587	  0.28501	  1.01839	  0.17230	 -0.04981	  1.27352	709.56702	 23.30	
 13.604	 64.789	  1.17129	  0.80635	  0.33768	  1.05335	  0.14619	 -0.04981	  1.27375	709.58301	 23.30	
 13.595	 71.958	  1.17260	  0.74276	  0.39596	  1.07961	  0.12827	 -0.05393	  1.27307	709.48798	 23.30	
 13.607	 79.207	  1.17707	  0.68179	  0.45643	  1.10274	  0.11494	 -0.05336	  1.27721	709.72302	 23.30	
 13.601	 86.383	  1.17712	  0.61569	  0.52073	  1.11157	  0.10942	 -0.05328	  1.27622	708.98999	 23.30	
 13.601	 93.617	  1.17630	  0.54978	  0.58441	  1.11288	  0.10822	 -0.05464	  1.27579	707.89801	 23.30	
 13.607	100.793	  1.17705	  0.48620	  0.64965	  1.10466	  0.11538	 -0.05878	  1.27663	709.54401	 23.30	
 13.595	108.042	  1.17441	  0.42462	  0.71565	  1.08600	  0.13003	 -0.05312	  1.27285	709.53802	 23.30	
 13.604	115.211	  1.17806	  0.36850	  0.78188	  1.06577	  0.14966	 -0.05349	  1.27725	709.71002	 23.30	
 13.611	122.431	  1.17821	  0.31508	  0.84344	  1.03180	  0.17706	 -0.05182	  1.27709	709.55701	 23.30	
 13.596	129.640	  1.18070	  0.26750	  0.90159	  0.99379	  0.20962	 -0.04764	  1.27859	709.51801	 23.30	
 13.601	136.825	  1.17985	  0.22302	  0.95424	  0.94520	  0.24868	 -0.04604	  1.27759	708.00098	 23.30	
 13.611	143.999	  1.18292	  0.18629	  1.00132	  0.89535	  0.29262	 -0.04451	  1.28133	709.52100	 23.30	
 13.609	151.210	  1.17608	  0.15523	  1.03446	  0.83303	  0.34028	 -0.04219	  1.27383	709.49902	 23.30	
 13.601	158.353	  1.18414	  0.13116	  1.07198	  0.77659	  0.39738	 -0.04317	  1.28240	709.58301	 23.30	
 13.611	165.583	  1.17638	  0.10924	  1.08919	  0.70645	  0.45178	 -0.03953	  1.27418	707.95099	 23.30	
 13.608	172.853	  1.17758	  0.09803	  1.10434	  0.64112	  0.51523	 -0.04058	  1.27551	709.58099	 23.30	
 15.298	173.587	  1.14648	  0.02563	  1.14284	  0.61697	  0.49003	 -0.05091	  1.27702	709.41699	 23.30	
 15.291	167.167	  1.14470	  0.03565	  1.12938	  0.68129	  0.42835	 -0.05086	  1.27463	709.59998	 23.30	
 15.307	160.676	  1.14788	  0.05429	  1.11150	  0.74873	  0.37187	 -0.04992	  1.27778	709.42603	 23.30	
 15.300	154.261	  1.14544	  0.07275	  1.08229	  0.80978	  0.31376	 -0.05115	  1.27562	709.51801	 23.30	
 15.288	147.854	  1.14909	  0.10268	  1.04977	  0.87206	  0.26475	 -0.05232	  1.27833	707.90601	 23.30	
 15.293	141.428	  1.14995	  0.13569	  1.00900	  0.92886	  0.21938	 -0.05406	  1.28054	709.44000	 23.30	
 15.299	134.985	  1.14957	  0.17594	  0.96036	  0.98093	  0.17777	 -0.05628	  1.27920	707.83801	 23.30	
 15.305	128.583	  1.14754	  0.21498	  0.90609	  1.02453	  0.13834	 -0.05941	  1.27865	709.55200	 23.30	
 15.309	122.142	  1.14662	  0.26473	  0.84773	  1.06400	  0.10736	 -0.06063	  1.27761	708.73401	 23.30	
 15.304	115.711	  1.14632	  0.31771	  0.78707	  1.09591	  0.08350	 -0.06162	  1.27681	708.69598	 23.30	
 15.297	109.291	  1.14541	  0.37469	  0.72304	  1.11987	  0.06514	 -0.06167	  1.27544	709.47900	 23.30	
 15.293	102.897	  1.14687	  0.43246	  0.65990	  1.13954	  0.04939	 -0.06258	  1.27799	709.40198	 23.30	
 15.293	 96.458	  1.14394	  0.49535	  0.59179	  1.14746	  0.04016	 -0.06323	  1.27485	709.53497	 23.30	
 15.300	 90.000	  1.14294	  0.55751	  0.52657	  1.14875	  0.03637	 -0.06595	  1.27477	709.44598	 23.30	
 15.293	 83.542	  1.14509	  0.62525	  0.46345	  1.14690	  0.03887	 -0.06430	  1.27800	708.68500	 23.30	
 15.293	 77.103	  1.14449	  0.69054	  0.40240	  1.13297	  0.04985	 -0.06276	  1.27733	709.44202	 23.30	
 15.297	 70.709	  1.14015	  0.75144	  0.34214	  1.10914	  0.06269	 -0.06026	  1.27360	709.42798	 23.30	
 15.304	 64.289	  1.14139	  0.81475	  0.28678	  1.08345	  0.08171	 -0.06025	  1.27636	709.50403	 23.30	
 15.309	 57.858	  1.14190	  0.87424	  0.23427	  1.05054	  0.10398	 -0.06059	  1.27727	709.44299	 23.30	
 15.305	 51.417	  1.13902	  0.92827	  0.19187	  1.00569	  0.14090	 -0.05592	  1.27409	709.40002	 23.30	
 15.299	 45.015	  1.13985	  0.98097	  0.14711	  0.95888	  0.17545	 -0.05427	  1.27626	709.45599	 23.30	
 15.293	 38.572	  1.13839	  1.02297	  0.11178	  0.90463	  0.21679	 -0.05434	  1.27469	709.41101	 23.30	
 15.288	 32.146	  1.13865	  1.06297	  0.07966	  0.84782	  0.26303	 -0.05154	  1.27604	709.35199	 23.30	
 15.300	 25.739	  1.13664	  1.09507	  0.05496	  0.78644	  0.31384	 -0.04572	  1.27463	709.39502	 23.30	
 15.307	 19.324	  1.13927	  1.12281	  0.03528	  0.72421	  0.37074	 -0.04596	  1.27704	709.48199	 23.30	
 15.291	 12.833	  1.13956	  1.14065	  0.02152	  0.65832	  0.43101	 -0.04624	  1.27616	709.35699	 23.30	
 15.298	  6.413	  1.13234	  1.14341	  0.01526	  0.59145	  0.48855	 -0.04382	  1.26850	709.49298	 23.30	
 15.300	  0.000	  1.13316	  1.14743	  0.01159	  0.52607	  0.55206	 -0.04381	  1.27033	709.57703	 23.30	
 15.298	 -6.413	  1.13658	  1.14609	  0.01478	  0.46500	  0.61819	 -0.04198	  1.27445	709.59198	 23.30	
 15.291	-12.833	  1.13576	  1.13259	  0.02556	  0.40487	  0.68278	 -0.04115	  1.27277	709.48499	 23.30	
 15.307	-19.324	  1.13853	  1.11587	  0.03886	  0.34491	  0.74946	 -0.04407	  1.27711	709.41199	 23.30	
 15.300	-25.739	  1.13804	  1.08711	  0.05796	  0.28886	  0.81206	 -0.04584	  1.27558	709.43597	 23.30	
 15.288	-32.146	  1.13878	  1.05151	  0.08679	  0.23902	  0.87221	 -0.04500	  1.27625	709.48499	 23.30	
 15.293	-38.572	  1.13827	  1.01166	  0.11874	  0.19313	  0.92872	 -0.04618	  1.27722	709.64801	 23.30	
 15.299	-45.015	  1.13824	  0.96309	  0.15620	  0.15002	  0.98163	 -0.04988	  1.27702	709.52197	 23.30	
 15.305	-51.417	  1.13648	  0.90885	  0.19749	  0.11371	  1.02515	 -0.04997	  1.27394	709.48798	 23.30	
 15.309	-57.858	  1.13651	  0.85092	  0.24514	  0.08239	  1.06568	 -0.05012	  1.27442	709.58899	 23.30	
 15.304	-64.289	  1.13860	  0.79051	  0.29894	  0.05912	  1.10013	 -0.04937	  1.27573	709.42603	 23.30	
 15.297	-70.709	  1.13572	  0.72518	  0.35394	  0.03873	  1.12378	 -0.05203	  1.27254	709.41699	 23.30	
 15.293	-77.103	  1.13494	  0.65847	  0.41318	  0.02381	  1.14144	 -0.05220	  1.27122	709.57501	 23.30	
 15.293	-83.542	  1.13584	  0.59266	  0.47448	  0.01493	  1.15369	 -0.05273	  1.27180	709.51801	 23.30	
 15.300	-90.000	  1.14082	  0.52857	  0.54213	  0.01347	  1.16162	 -0.05586	  1.27697	709.51501	 23.30	
 15.293	-96.458	  1.14193	  0.46561	  0.60711	  0.01691	  1.15793	 -0.05434	  1.27608	709.44800	 23.30	
 15.293	-102.897	  1.14245	  0.40339	  0.67282	  0.02736	  1.14555	 -0.05429	  1.27490	709.42603	 23.30	
 15.297	-109.291	  1.14523	  0.34515	  0.73876	  0.04320	  1.12915	 -0.05793	  1.27912	709.35303	 23.30	
 15.304	-115.711	  1.14491	  0.29245	  0.80176	  0.06827	  1.09967	 -0.05374	  1.27699	709.37201	 23.30	
 15.309	-122.142	  1.14346	  0.23964	  0.86157	  0.09304	  1.06460	 -0.05375	  1.27463	709.44598	 23.30	
 15.305	-128.583	  1.14362	  0.19282	  0.91609	  0.12498	  1.02364	 -0.05185	  1.27369	709.51898	 23.30	
 15.299	-134.985	  1.14263	  0.15324	  0.96735	  0.16390	  0.97785	 -0.05292	  1.27320	709.54102	 23.30	
 15.293	-141.428	  1.14316	  0.11748	  1.01345	  0.20764	  0.92431	 -0.05162	  1.27322	709.46997	 23.30	
 15.288	-147.854	  1.14599	  0.08842	  1.05659	  0.25797	  0.86977	 -0.05135	  1.27464	709.44000	 23.30	
 15.300	-154.261	  1.14770	  0.06475	  1.09062	  0.31030	  0.81207	 -0.05059	  1.27705	709.43298	 23.30	
 15.307	-160.676	  1.14647	  0.04549	  1.11561	  0.36622	  0.74905	 -0.05250	  1.27595	708.78400	 23.30	
 15.291	-167.167	  1.14606	  0.03243	  1.13279	  0.42650	  0.68264	 -0.05197	  1.27449	709.49298	 23.30	
 15.298	-173.587	  1.14495	  0.02536	  1.14335	  0.48882	  0.61811	 -0.05149	  1.27363	709.49597	 23.30	
 15.300	180.000	  1.14285	  0.02268	  1.14322	  0.55047	  0.55221	 -0.05399	  1.27198	709.48999	 23.30	
 17.000	180.000	  1.10733	 -0.03716	  1.17508	  0.52895	  0.52917	 -0.05663	  1.27084	709.62299	 23.30	
 16.990	-174.179	  1.11424	 -0.02857	  1.17744	  0.47311	  0.59774	 -0.05504	  1.27670	709.57501	 23.30	
 17.009	-168.383	  1.10988	 -0.02455	  1.16548	  0.40935	  0.65844	 -0.05723	  1.27195	709.32098	 23.30	
 17.000	-162.596	  1.11306	 -0.01678	  1.15307	  0.34970	  0.72294	 -0.05800	  1.27574	709.45697	 23.30	
 16.990	-156.759	  1.11737	  0.00036	  1.13367	  0.29624	  0.78706	 -0.05798	  1.28094	709.55798	 23.30	
 16.995	-150.919	  1.10969	  0.02370	  1.09549	  0.24259	  0.84236	 -0.05785	  1.27256	709.59698	 23.30	
 16.988	-145.161	  1.11023	  0.04628	  1.06069	  0.19170	  0.89929	 -0.05973	  1.27351	709.50201	 23.30	
 17.014	-139.343	  1.10419	  0.07946	  1.01389	  0.14853	  0.94974	 -0.05626	  1.26694	707.78400	 23.30	
 17.007	-133.546	  1.11122	  0.11614	  0.97364	  0.11016	  1.00526	 -0.05740	  1.27456	707.85199	 23.30	
 17.001	-127.699	  1.11004	  0.15691	  0.92107	  0.07492	  1.04957	 -0.05706	  1.27402	709.54901	 23.30	
 17.006	-121.937	  1.10576	  0.19541	  0.86331	  0.03780	  1.08641	 -0.05872	  1.27109	709.45599	 23.30	
 17.002	-116.134	  1.10665	  0.25075	  0.80595	  0.01958	  1.12017	 -0.05682	  1.27177	709.45001	 23.30	
 17.001	-110.310	  1.10295	  0.29701	  0.74155	 -0.01014	  1.14632	 -0.05778	  1.27010	708.39301	 23.30	
 16.988	-104.517	  1.10684	  0.35915	  0.68213	 -0.01850	  1.16787	 -0.05457	  1.27323	709.32098	 23.30	
 17.008	-98.662	  1.10644	  0.41538	  0.61713	 -0.03522	  1.18399	 -0.05351	  1.27453	709.44800	 23.30	
 16.996	-92.909	  1.10463	  0.47739	  0.55385	 -0.03761	  1.18785	 -0.05439	  1.27315	709.49500	 23.30	
 16.996	-87.091	  1.10371	  0.54016	  0.49081	 -0.03740	  1.18826	 -0.05197	  1.27340	709.40802	 23.30	
 17.012	-81.253	  1.10461	  0.60292	  0.42579	 -0.04136	  1.18591	 -0.04894	  1.27665	709.53497	 23.30	
 16.988	-75.483	  1.10113	  0.66636	  0.36822	 -0.02635	  1.16772	 -0.04872	  1.27181	709.47101	 23.30	
 17.001	-69.690	  1.10002	  0.72841	  0.31284	 -0.01113	  1.14748	 -0.05218	  1.27090	709.53601	 23.30	
 17.002	-63.866	  1.09688	  0.79023	  0.25339	  0.00285	  1.11962	 -0.04893	  1.27005	709.42297	 23.30	
 17.006	-58.063	  1.09997	  0.85302	  0.20450	  0.02688	  1.09092	 -0.04944	  1.27344	709.36401	 23.30	
 17.001	-52.301	  1.10646	  0.91466	  0.16179	  0.06017	  1.05677	 -0.05090	  1.28004	709.41101	 23.30	
 17.007	-46.454	  1.09794	  0.96148	  0.11880	  0.09380	  1.00360	 -0.04813	  1.27072	709.43402	 23.30	
 17.014	-40.657	  1.09956	  1.01219	  0.07793	  0.12873	  0.95748	 -0.04914	  1.27402	709.45599	 23.30	
 16.988	-34.839	  1.09994	  1.05486	  0.05013	  0.17691	  0.90305	 -0.04570	  1.27305	709.48102	 23.30	
 16.995	-29.081	  1.09833	  1.08969	  0.02084	  0.22156	  0.84419	 -0.04735	  1.27035	709.38098	 23.30	
 16.990	-23.241	  1.10041	  1.12392	 -0.00413	  0.27275	  0.78464	 -0.04354	  1.27406	709.57501	 23.30	
 17.000	-17.404	  1.09892	  1.14842	 -0.02619	  0.32324	  0.72203	 -0.04304	  1.27263	709.43597	 23.30	
 17.009	-11.617	  1.10367	  1.17027	 -0.03574	  0.38524	  0.66113	 -0.04425	  1.27732	709.40198	 23.30	
 16.990	 -5.821	  1.10415	  1.17959	 -0.03835	  0.44710	  0.59854	 -0.04195	  1.27601	709.47900	 23.30	
 17.000	  0.000	  1.10080	  1.18238	 -0.04480	  0.50624	  0.53391	 -0.04316	  1.27259	709.32397	 23.30	
 16.990	  5.821	  1.10617	  1.18434	 -0.04180	  0.57285	  0.47370	 -0.04405	  1.27790	709.42297	 23.30	
 17.009	 11.617	  1.10458	  1.17551	 -0.03702	  0.63527	  0.41312	 -0.04316	  1.27747	709.36902	 23.30	
 17.000	 17.404	  1.10564	  1.15882	 -0.01864	  0.70015	  0.35940	 -0.04539	  1.27773	709.40302	 23.30	
 16.990	 23.241	  1.10179	  1.13290	 -0.00479	  0.76015	  0.30004	 -0.04624	  1.27393	709.39203	 23.30	
 16.995	 29.081	  1.10066	  1.10242	  0.01846	  0.82055	  0.24937	 -0.04941	  1.27141	709.30200	 23.30	
 16.988	 34.839	  1.09918	  1.06664	  0.04253	  0.87627	  0.20098	 -0.05286	  1.27003	709.49597	 23.30	
 17.014	 40.657	  1.10192	  1.02892	  0.07471	  0.93474	  0.15802	 -0.05844	  1.27348	709.36700	 23.30	
 17.007	 46.454	  1.10307	  0.98354	  0.11040	  0.98546	  0.11881	 -0.05925	  1.27423	709.38599	 23.30	
 17.001	 52.301	  1.10347	  0.93189	  0.15154	  1.03179	  0.08460	 -0.05737	  1.27371	709.40302	 23.30	
 17.006	 58.063	  1.10143	  0.87605	  0.19496	  1.06911	  0.05546	 -0.06210	  1.27094	707.82898	 23.30	
 17.002	 63.866	  1.10464	  0.82053	  0.24610	  1.10612	  0.03130	 -0.06215	  1.27397	708.15399	 23.30	
 17.001	 69.690	  1.10349	  0.75875	  0.29937	  1.13265	  0.01399	 -0.06328	  1.27106	709.65601	 23.30	
 16.988	 75.483	  1.10488	  0.69640	  0.35411	  1.15507	 -0.00357	 -0.06797	  1.27292	709.13800	 23.30	
 17.012	 81.253	  1.10476	  0.63471	  0.41143	  1.16975	 -0.01295	 -0.06667	  1.27152	709.48700	 23.30	
 16.996	 87.091	  1.10675	  0.57214	  0.47337	  1.17887	 -0.01750	 -0.06714	  1.27278	709.43597	 23.30	
 16.996	 92.909	  1.10908	  0.51013	  0.53796	  1.18132	 -0.01613	 -0.06724	  1.27445	709.44202	 23.30	
 17.008	 98.662	  1.10920	  0.44952	  0.60092	  1.17574	 -0.01045	 -0.06645	  1.27425	709.63000	 23.30	
 16.988	104.517	  1.10672	  0.38713	  0.66183	  1.16065	 -0.00373	 -0.06540	  1.27093	709.61401	 23.30	
 17.001	110.310	  1.10819	  0.33155	  0.72619	  1.14300	  0.01284	 -0.06434	  1.27045	709.58502	 23.30	
 17.002	116.134	  1.10876	  0.27607	  0.78842	  1.11768	  0.03063	 -0.06448	  1.27272	709.53601	 23.30	
 17.006	121.937	  1.10568	  0.22792	  0.84534	  1.08100	  0.05871	 -0.06457	  1.26725	709.41199	 23.30	
 17.001	127.699	  1.10914	  0.17583	  0.90395	  1.04717	  0.08082	 -0.06645	  1.27301	709.48199	 23.30	
 17.007	133.546	  1.11128	  0.13465	  0.96041	  1.00596	  0.11739	 -0.06435	  1.27585	709.48199	 23.30	
 17.014	139.343	  1.10828	  0.09802	  1.00599	  0.95384	  0.15710	 -0.06208	  1.27132	709.49298	 23.30	
 16.988	145.161	  1.11109	  0.06458	  1.05099	  0.90221	  0.20088	 -0.05948	  1.27379	709.44000	 23.30	
 16.995	150.919	  1.10922	  0.03239	  1.08679	  0.84303	  0.24517	 -0.05757	  1.27258	709.40302	 23.30	
 16.990	156.759	  1.10522	  0.01383	  1.11386	  0.78187	  0.29806	 -0.05620	  1.26701	709.48700	 23.30	
 17.000	162.596	  1.10904	 -0.01164	  1.14326	  0.72049	  0.35035	 -0.05833	  1.27251	709.49298	 23.30	
 17.009	168.383	  1.11152	 -0.02515	  1.16433	  0.65924	  0.40848	 -0.05659	  1.27599	709.60303	 23.30	
 16.990	174.179	  1.11172	 -0.02494	  1.17272	  0.59841	  0.47233	 -0.05477	  1.27427	709.54102	 23.30	
 18.709	174.675	  1.07168	 -0.10678	  1.20447	  0.56544	  0.43711	 -0.05731	  1.27600	709.61200	 23.30	
 18.703	169.441	  1.07403	 -0.09886	  1.19758	  0.62876	  0.38018	 -0.05441	  1.27905	709.45398	 23.30	
 18.691	164.085	  1.07197	 -0.08598	  1.17855	  0.69120	  0.32146	 -0.05523	  1.27554	709.46198	 23.30	
 18.706	158.818	  1.07046	 -0.06788	  1.15514	  0.75404	  0.26636	 -0.05781	  1.27421	709.52197	 23.30	
 18.695	153.537	  1.07155	 -0.04556	  1.12667	  0.81403	  0.21630	 -0.05877	  1.27478	709.51898	 23.30	
 18.704	148.255	  1.07004	 -0.02324	  1.09293	  0.87147	  0.16655	 -0.05748	  1.27422	709.44000	 23.30	
 18.698	142.952	  1.07107	  0.01088	  1.05250	  0.92883	  0.12302	 -0.06197	  1.27433	709.31500	 23.30	
 18.699	137.625	  1.07353	  0.04492	  1.00846	  0.98339	  0.08183	 -0.06202	  1.27770	709.39398	 23.30	
 18.705	132.343	  1.07270	  0.08288	  0.95867	  1.02873	  0.04650	 -0.06300	  1.27640	709.44800	 23.30	
 18.713	127.067	  1.07114	  0.12294	  0.90421	  1.07175	  0.01101	 -0.06369	  1.27536	709.49298	 23.30	
 18.700	121.794	  1.06876	  0.16960	  0.84581	  1.10680	 -0.01640	 -0.06511	  1.27261	708.87598	 23.20	
 18.698	116.504	  1.06633	  0.21865	  0.78399	  1.13688	 -0.04057	 -0.06101	  1.27018	709.38397	 23.30	
 18.707	111.165	  1.07432	  0.27350	  0.72729	  1.17268	 -0.06129	 -0.06309	  1.27945	707.66400	 23.30	
 18.690	105.863	  1.07190	  0.33079	  0.66213	  1.18970	 -0.07518	 -0.05972	  1.27672	709.39203	 23.20	
 18.696	100.583	  1.06634	  0.38547	  0.59585	  1.19819	 -0.08680	 -0.06310	  1.27161	709.42297	 23.20	
 18.700	 95.309	  1.06823	  0.44672	  0.53349	  1.20721	 -0.09286	 -0.06708	  1.27366	707.77002	 23.20	
 18.700	 90.000	  1.06995	  0.51033	  0.47164	  1.21162	 -0.09565	 -0.06554	  1.27622	709.27100	 23.20	
 18.700	 84.691	  1.06979	  0.57320	  0.40989	  1.20807	 -0.09375	 -0.06646	  1.27687	709.43903	 23.20	
 18.696	 79.417	  1.06727	  0.63461	  0.34914	  1.19729	 -0.08885	 -0.06649	  1.27679	709.37500	 23.20	
 18.690	 74.137	  1.06617	  0.69501	  0.29198	  1.17991	 -0.07959	 -0.06644	  1.27642	709.25897	 23.20	
 18.707	 68.835	  1.06334	  0.75802	  0.23554	  1.15624	 -0.06427	 -0.06092	  1.27331	709.42798	 23.20	
 18.698	 63.496	  1.06180	  0.81769	  0.18318	  1.12597	 -0.04450	 -0.05994	  1.27303	709.29901	 23.20	
 18.700	 58.206	  1.06077	  0.87500	  0.13293	  1.09147	 -0.02254	 -0.06060	  1.27372	709.29797	 23.20	
 18.713	 52.933	  1.06150	  0.93131	  0.09144	  1.05118	  0.00529	 -0.05890	  1.27144	709.27899	 23.20	
 18.705	 47.657	  1.05747	  0.97959	  0.05105	  1.00113	  0.03840	 -0.05519	  1.26712	709.40198	 23.20	
 18.699	 42.375	  1.05809	  1.02702	  0.01425	  0.95398	  0.07383	 -0.05693	  1.26994	709.43903	 23.20	
 18.698	 37.048	  1.05937	  1.07161	 -0.01859	  0.90142	  0.11471	 -0.05397	  1.27125	709.47900	 23.20	
 18.704	 31.745	  1.05902	  1.10961	 -0.04605	  0.84377	  0.16122	 -0.04835	  1.27115	709.33197	 23.20	
 18.695	 26.463	  1.06014	  1.14233	 -0.06877	  0.78511	  0.21075	 -0.04453	  1.27324	709.40198	 23.20	
 18.706	 21.182	  1.05634	  1.16435	 -0.08977	  0.72139	  0.26007	 -0.04557	  1.26907	709.42603	 23.20	
 18.691	 15.915	  1.05973	  1.18858	 -0.10451	  0.66091	  0.31668	 -0.04285	  1.27361	709.35699	 23.20	
 18.703	 10.559	  1.06021	  1.20389	 -0.11379	  0.59805	  0.37553	 -0.03789	  1.27390	709.48999	 23.20	
 18.709	  5.325	  1.06016	  1.21238	 -0.12138	  0.53527	  0.43407	 -0.04130	  1.27442	709.36700	 23.20	
 18.700	  0.000	  1.06133	  1.21435	 -0.12293	  0.47136	  0.49805	 -0.04027	  1.27495	708.81403	 23.20	
 18.709	 -5.325	  1.06635	  1.21647	 -0.11935	  0.41279	  0.56352	 -0.03838	  1.28094	709.43597	 23.20	
 18.703	-10.559	  1.06131	  1.20196	 -0.11417	  0.35059	  0.62328	 -0.03876	  1.27561	709.36700	 23.20	
 18.691	-15.915	  1.06057	  1.18324	 -0.10031	  0.29230	  0.68708	 -0.03976	  1.27418	709.41498	 23.20	
 18.706	-21.182	  1.06204	  1.16411	 -0.08596	  0.23747	  0.75029	 -0.04122	  1.27728	709.41498	 23.20	
 18.695	-26.463	  1.06047	  1.13214	 -0.06411	  0.18571	  0.81019	 -0.04316	  1.27440	709.46198	 23.20	
 18.704	-31.745	  1.06233	  1.09905	 -0.03811	  0.13882	  0.87093	 -0.04417	  1.27515	709.39502	 23.20	
 18.698	-37.048	  1.05916	  1.05693	 -0.00860	  0.09406	  0.92500	 -0.04435	  1.27349	709.38898	 23.20	
 18.699	-42.375	  1.06336	  1.01585	  0.02606	  0.05545	  0.98097	 -0.04219	  1.27740	709.51300	 23.20	
 18.705	-47.657	  1.05803	  0.96110	  0.06233	  0.01612	  1.02465	 -0.04354	  1.27297	709.45898	 23.20	
 18.713	-52.933	  1.06059	  0.90890	  0.10255	 -0.01809	  1.07136	 -0.04567	  1.27640	709.45001	 23.30	
 18.700	-58.206	  1.05893	  0.85008	  0.15017	 -0.04304	  1.10690	 -0.04426	  1.27210	709.40802	 23.20	
 18.698	-63.496	  1.06058	  0.79071	  0.19915	 -0.06872	  1.14156	 -0.04373	  1.27514	709.45398	 23.20	
 18.707	-68.835	  1.06284	  0.72959	  0.25373	 -0.08587	  1.16991	 -0.04592	  1.27631	709.35999	 23.30	
 18.690	-74.137	  1.06545	  0.66695	  0.31097	 -0.09981	  1.19089	 -0.04591	  1.27735	709.38000	 23.30	
 18.696	-79.417	  1.06447	  0.60386	  0.36879	 -0.10915	  1.20525	 -0.04354	  1.27537	709.39203	 23.30	
 18.700	-84.691	  1.06662	  0.53985	  0.42906	 -0.11699	  1.21621	 -0.04487	  1.27813	709.47302	 23.30	
 18.700	-90.000	  1.06489	  0.47413	  0.49035	 -0.11851	  1.21541	 -0.04597	  1.27417	709.50403	 23.30	
 18.700	-95.309	  1.06632	  0.41241	  0.55456	 -0.11618	  1.21362	 -0.05020	  1.27511	709.47302	 23.30	
 18.696	-100.583	  1.06948	  0.35342	  0.62019	 -0.10796	  1.20689	 -0.05066	  1.27870	709.39697	 23.30	
 18.690	-105.863	  1.06708	  0.29527	  0.68017	 -0.09775	  1.18960	 -0.05287	  1.27579	709.45697	 23.30	
 18.707	-111.165	  1.07014	  0.24111	  0.74627	 -0.07916	  1.16969	 -0.05442	  1.27778	709.49902	 23.30	
 18.698	-116.504	  1.06968	  0.18869	  0.80617	 -0.05815	  1.13999	 -0.05574	  1.27562	709.38898	 23.30	
 18.700	-121.794	  1.06903	  0.13995	  0.86393	 -0.03466	  1.10646	 -0.05738	  1.27499	709.34100	 23.30	
 18.713	-127.067	  1.06907	  0.09726	  0.91973	 -0.00366	  1.06771	 -0.05596	  1.27393	709.38800	 23.30	
 18.705	-132.343	  1.07322	  0.05897	  0.97572	  0.03355	  1.02591	 -0.05772	  1.27766	709.31299	 23.30	
 18.699	-137.625	  1.07462	  0.02278	  1.02455	  0.07149	  0.97768	 -0.05808	  1.27900	709.31799	 23.30	
 18.698	-142.952	  1.07567	 -0.00884	  1.06938	  0.11384	  0.92542	 -0.05985	  1.27870	709.34100	 23.30	
 18.704	-148.255	  1.07092	 -0.03782	  1.10359	  0.15894	  0.86447	 -0.05723	  1.27284	709.47400	 23.30	
 18.695	-153.537	  1.07537	 -0.06033	  1.13988	  0.21039	  0.80879	 -0.05945	  1.27772	709.27899	 23.30	
 18.706	-158.818	  1.07453	 -0.07882	  1.16658	  0.26276	  0.74807	 -0.05665	  1.27835	709.49500	 23.30	
 18.691	-164.085	  1.07383	 -0.09123	  1.18544	  0.31922	  0.68557	 -0.05646	  1.27585	709.24298	 23.30	
 18.703	-169.441	  1.07288	 -0.10056	  1.19839	  0.37759	  0.62145	 -0.05469	  1.27347	709.28998	 23.30	
 18.709	-174.675	  1.07368	 -0.10489	  1.20746	  0.43915	  0.56030	 -0.05473	  1.27468	709.36401	 23.30	
 18.700	180.000	  1.07326	 -0.10759	  1.21002	  0.50044	  0.49693	 -0.05541	  1.27518	709.45001	 23.30	
 20.400	180.000	  1.02213	 -0.19148	  1.22877	  0.45933	  0.45432	 -0.05348	  1.26904	709.40900	 23.30	
 20.401	-175.153	  1.02594	 -0.19232	  1.23201	  0.39914	  0.51655	 -0.05220	  1.27437	709.42603	 23.30	
 20.407	-170.264	  1.02534	 -0.18672	  1.22247	  0.33929	  0.57865	 -0.05435	  1.27265	709.32397	 23.30	
 20.410	-165.423	  1.02425	 -0.17884	  1.21005	  0.27931	  0.64202	 -0.05529	  1.27237	709.25598	 23.30	
 20.392	-160.496	  1.02332	 -0.16670	  1.18975	  0.22202	  0.70422	 -0.05332	  1.27075	709.34698	 23.30	
 20.401	-155.705	  1.02444	 -0.14986	  1.16690	  0.17030	  0.76569	 -0.05398	  1.27191	709.36401	 23.30	
 20.405	-150.835	  1.02482	 -0.13062	  1.13815	  0.11888	  0.82592	 -0.05492	  1.27364	709.47101	 23.30	
 20.397	-145.903	  1.02721	 -0.10429	  1.10420	  0.07217	  0.88641	 -0.05733	  1.27584	709.47803	 23.30	
 20.392	-141.062	  1.02539	 -0.07890	  1.06296	  0.02560	  0.94066	 -0.05694	  1.27520	709.34698	 23.30	
 20.396	-136.227	  1.02249	 -0.04721	  1.01635	 -0.01458	  0.98960	 -0.05808	  1.27273	709.39398	 23.30	
 20.408	-131.372	  1.01920	 -0.01095	  0.96393	 -0.05156	  1.03554	 -0.05597	  1.27060	709.30701	 23.30	
 20.410	-126.511	  1.01579	  0.02851	  0.90874	 -0.08388	  1.07506	 -0.05497	  1.26724	709.30701	 23.30	
 20.400	-121.604	  1.02225	  0.07523	  0.85570	 -0.11135	  1.12021	 -0.05448	  1.27290	709.41998	 23.30	
 20.403	-116.741	  1.02155	  0.12161	  0.79783	 -0.13831	  1.15581	 -0.05188	  1.27595	709.42499	 23.30	
 20.413	-111.900	  1.01979	  0.17095	  0.73618	 -0.15880	  1.18162	 -0.05186	  1.27262	709.53497	 23.30	
 20.398	-107.004	  1.01683	  0.22340	  0.67116	 -0.17805	  1.20237	 -0.05011	  1.27111	709.47400	 23.30	
 20.394	-102.132	  1.01683	  0.28019	  0.60830	 -0.19064	  1.22045	 -0.04708	  1.27297	709.30798	 23.30	
 20.403	-97.332	  1.01641	  0.33954	  0.54512	 -0.19925	  1.23202	 -0.04719	  1.27364	709.46997	 23.30	
 20.392	-92.440	  1.01692	  0.40056	  0.48170	 -0.20367	  1.23881	 -0.04144	  1.27551	709.39398	 23.30	
 20.392	-87.560	  1.01728	  0.46359	  0.41982	 -0.20576	  1.24042	 -0.04144	  1.27619	709.40900	 23.30	
 20.403	-82.668	  1.01179	  0.52551	  0.35596	 -0.20171	  1.23051	 -0.04015	  1.27118	709.36700	 23.30	
 20.394	-77.868	  1.00816	  0.58661	  0.29747	 -0.19314	  1.21546	 -0.04208	  1.26695	709.39697	 23.30	
 20.398	-72.996	  1.01269	  0.65378	  0.24047	 -0.18312	  1.20598	 -0.03998	  1.27359	709.40002	 23.30	
 20.413	-68.100	  1.01364	  0.71909	  0.18501	 -0.16941	  1.18781	 -0.04135	  1.27661	709.33197	 23.30	
 20.403	-63.259	  1.00990	  0.77900	  0.13411	 -0.14687	  1.15504	 -0.04146	  1.27146	709.44598	 23.30	
 20.400	-58.396	  1.01038	  0.83858	  0.08631	 -0.12391	  1.12339	 -0.04446	  1.27272	709.31799	 23.30	
 20.410	-53.489	  1.00859	  0.89739	  0.03569	 -0.10101	  1.08587	 -0.04325	  1.27222	709.38098	 23.30	
 20.408	-48.628	  1.01269	  0.95527	 -0.00304	 -0.06781	  1.04690	 -0.03966	  1.27713	709.40503	 23.30	
 20.396	-43.773	  1.01297	  1.00552	 -0.03939	 -0.03096	  0.99796	 -0.04152	  1.27517	709.35699	 23.30	
 20.392	-38.938	  1.01122	  1.05193	 -0.07399	  0.00675	  0.94622	 -0.04154	  1.27500	709.33301	 23.30	
 20.397	-34.097	  1.01423	  1.09628	 -0.10387	  0.05000	  0.89293	 -0.04126	  1.27769	709.36700	 23.30	
 20.405	-29.165	  1.01206	  1.13130	 -0.12904	  0.09561	  0.83433	 -0.03989	  1.27468	709.46997	 23.30	
 20.401	-24.295	  1.01197	  1.16476	 -0.15293	  0.14559	  0.77168	 -0.03575	  1.27461	709.25897	 23.30	
 20.392	-19.504	  1.01111	  1.18860	 -0.16992	  0.19695	  0.71090	 -0.03569	  1.27393	709.41498	 23.30	
 20.410	-14.577	  1.01084	  1.20964	 -0.18791	  0.25064	  0.64691	 -0.03798	  1.27284	709.48499	 23.30	
 20.407	 -9.736	  1.01412	  1.22825	 -0.19727	  0.31096	  0.58508	 -0.03407	  1.27744	709.39203	 23.30	
 20.401	 -4.847	  1.01423	  1.23698	 -0.20586	  0.36922	  0.52028	 -0.03630	  1.27696	709.43103	 23.30	
 20.400	  0.000	  1.01350	  1.23852	 -0.20572	  0.43068	  0.45800	 -0.03784	  1.27577	709.40002	 23.30	
 20.401	  4.847	  1.00904	  1.23344	 -0.20689	  0.49037	  0.39439	 -0.03547	  1.27180	709.43903	 23.30	
 20.407	  9.736	  1.01150	  1.22874	 -0.20136	  0.55534	  0.33501	 -0.03413	  1.27448	709.45099	 23.30	
 20.410	 14.577	  1.01317	  1.21737	 -0.19131	  0.62027	  0.27790	 -0.03606	  1.27524	709.42499	 23.30	
 20.392	 19.504	  1.01217	  1.19710	 -0.17748	  0.68466	  0.21989	 -0.04147	  1.27416	709.34900	 23.30	
 20.401	 24.295	  1.01464	  1.17712	 -0.16030	  0.74634	  0.17135	 -0.04050	  1.27687	709.45599	 23.30	
 20.405	 29.165	  1.01278	  1.14623	 -0.14042	  0.80709	  0.11797	 -0.04393	  1.27547	709.40802	 23.30	
 20.397	 34.097	  1.01368	  1.11082	 -0.11359	  0.86701	  0.07210	 -0.04686	  1.27524	709.42499	 23.30	
 20.392	 38.938	  1.01697	  1.07438	 -0.08488	  0.92456	  0.02959	 -0.05036	  1.27867	709.40503	 23.30	
 20.396	 43.773	  1.01493	  1.02813	 -0.05416	  0.97418	 -0.01048	 -0.05351	  1.27546	709.41998	 23.30	
 20.408	 48.628	  1.01185	  0.97588	 -0.01767	  1.02125	 -0.04795	 -0.05641	  1.27120	709.34100	 23.30	
 20.410	 53.489	  1.01263	  0.92452	  0.02542	  1.06594	 -0.07603	 -0.05468	  1.27081	709.36102	 23.40	
 20.400	 58.396	  1.01219	  0.86698	  0.06983	  1.10482	 -0.10492	 -0.05745	  1.26967	709.33301	 23.40	
 20.403	 63.259	  1.00980	  0.80706	  0.11539	  1.13592	 -0.12914	 -0.05901	  1.26592	709.46698	 23.30	
 20.413	 68.100	  1.00890	  0.74703	  0.16620	  1.16262	 -0.14683	 -0.05795	  1.26343	709.48999	 23.30	
 20.398	 72.996	  1.01321	  0.68764	  0.22118	  1.19023	 -0.16352	 -0.06083	  1.26848	709.49597	 23.30	
 20.394	 77.868	  1.01526	  0.62639	  0.27802	  1.20960	 -0.17350	 -0.05832	  1.26911	709.49500	 23.30	
 20.403	 82.668	  1.01939	  0.56541	  0.33688	  1.22613	 -0.18370	 -0.06166	  1.27320	709.45398	 23.30	
 20.392	 87.560	  1.01791	  0.50115	  0.39848	  1.22845	 -0.18346	 -0.06014	  1.26869	709.46503	 23.30	
 20.392	 92.440	  1.02309	  0.44108	  0.46312	  1.23384	 -0.18247	 -0.06021	  1.27415	709.46399	 23.30	
 20.403	 97.332	  1.02762	  0.38193	  0.52867	  1.23457	 -0.17870	 -0.05623	  1.27954	709.58002	 23.40	
 20.394	102.132	  1.02129	  0.32155	  0.58813	  1.21545	 -0.16835	 -0.05951	  1.26951	709.51202	 23.30	
 20.398	107.004	  1.01727	  0.26244	  0.64904	  1.19582	 -0.15622	 -0.05609	  1.26459	709.52600	 23.40	
 20.413	111.900	  1.01882	  0.20803	  0.71244	  1.17627	 -0.14091	 -0.05730	  1.26625	709.50500	 23.40	
 20.403	116.741	  1.01922	  0.15549	  0.77374	  1.15015	 -0.12322	 -0.06134	  1.26558	709.53601	 23.30	
 20.400	121.604	  1.02388	  0.10716	  0.83763	  1.12502	 -0.10028	 -0.06147	  1.27306	709.53302	 23.40	
 20.410	126.511	  1.02202	  0.06054	  0.89449	  1.08446	 -0.07254	 -0.06107	  1.27005	709.44299	 23.40	
 20.408	131.372	  1.02359	  0.02096	  0.94868	  1.04399	 -0.04044	 -0.06082	  1.27076	709.52197	 23.40	
 20.396	136.227	  1.02590	 -0.01727	  1.00201	  0.99841	 -0.00392	 -0.05997	  1.27303	709.52100	 23.40	
 20.392	141.062	  1.02719	 -0.05106	  1.04964	  0.94988	  0.03529	 -0.05781	  1.27544	709.36902	 23.30	
 20.397	145.903	  1.02570	 -0.08449	  1.09091	  0.89412	  0.07572	 -0.05576	  1.27335	709.51801	 23.40	
 20.405	150.835	  1.02671	 -0.11070	  1.12880	  0.83667	  0.12313	 -0.05423	  1.27393	709.44598	 23.40	
 20.401	155.705	  1.02459	 -0.13503	  1.15780	  0.77394	  0.17099	 -0.05795	  1.27229	709.53003	 23.30	
 20.392	160.496	  1.02989	 -0.15294	  1.18833	  0.71840	  0.22343	 -0.05459	  1.27697	709.44000	 23.30	
 20.410	165.423	  1.02957	 -0.16930	  1.20927	  0.65375	  0.27948	 -0.05646	  1.27843	709.38599	 23.30	
 20.407	170.264	  1.02150	 -0.18073	  1.21535	  0.58501	  0.33386	 -0.05369	  1.26831	709.44202	 23.30	
 20.401	175.153	  1.02710	 -0.18667	  1.22988	  0.52617	  0.39524	 -0.05398	  1.27377	709.51801	 23.40	
  0.141	 45.000	  1.27869	  0.68958	  0.67428	  0.68412	  0.68991	  0.00924	  1.26862	709.53601	 23.30	
  4.001	128.691	  1.28215	  0.58257	  0.75237	  0.78438	  0.56538	  0.00160	  1.27626	709.35999	 23.30	
  4.002	 76.995	  1.27950	  0.70359	  0.62407	  0.80871	  0.54013	  0.00183	  1.27430	709.46399	 23.30	
  4.002	 25.892	  1.28230	  0.80886	  0.52878	  0.72567	  0.60963	  0.00251	  1.27725	709.45001	 23.30	
  4.002	-25.892	  1.27706	  0.80267	  0.52941	  0.59459	  0.73635	  0.00267	  1.27246	709.50201	 23.30	
  4.002	-76.995	  1.27649	  0.69498	  0.62215	  0.51944	  0.82152	 -0.00215	  1.27157	709.57202	 23.30	
  4.001	-128.691	  1.27621	  0.57114	  0.75276	  0.54907	  0.79057	  0.00093	  1.26975	708.22400	 23.30	
  4.000	180.000	  1.27984	  0.52725	  0.81121	  0.66450	  0.67240	  0.00237	  1.27425	709.38000	 23.30	
  8.000	180.000	  1.25064	  0.34932	  0.94849	  0.63635	  0.64398	 -0.01042	  1.27005	709.50702	 23.30	
  7.991	-152.370	  1.25327	  0.37423	  0.91587	  0.49770	  0.78842	 -0.01329	  1.27202	709.39398	 23.30	
  7.997	-124.550	  1.25427	  0.46381	  0.81201	  0.39364	  0.90676	 -0.01628	  1.27395	709.49500	 23.30	
  8.006	-96.837	  1.25507	  0.59500	  0.67099	  0.34464	  0.96342	 -0.01976	  1.27541	709.54102	 23.30	
  7.988	-69.228	  1.25131	  0.74195	  0.52414	  0.35845	  0.94205	 -0.02115	  1.27232	709.51501	 23.30	
  7.997	-41.563	  1.25393	  0.87300	  0.41042	  0.43210	  0.85548	 -0.01493	  1.27571	709.44202	 23.30	
  8.008	-13.821	  1.25262	  0.94889	  0.34654	  0.55428	  0.71791	 -0.01372	  1.27411	709.41498	 23.30	
  8.008	 13.821	  1.25316	  0.95251	  0.34401	  0.70098	  0.57123	 -0.01278	  1.27520	709.40302	 23.30	
  7.997	 41.563	  1.25717	  0.88396	  0.40698	  0.84072	  0.45107	 -0.01235	  1.27845	709.31598	 23.30	
  7.988	 69.228	  1.25355	  0.75566	  0.51762	  0.92970	  0.37499	 -0.01737	  1.27408	709.31799	 23.30	
  8.006	 96.837	  1.25271	  0.60920	  0.66094	  0.95220	  0.36055	 -0.01802	  1.27223	709.43597	 23.30	
  7.997	124.550	  1.24796	  0.47501	  0.80055	  0.89577	  0.40512	 -0.01421	  1.26866	709.48499	 23.30	
  7.991	152.370	  1.25329	  0.38584	  0.90945	  0.78337	  0.50849	 -0.01211	  1.27249	709.45599	 23.30	
 12.009	161.059	  1.20684	  0.19396	  1.04180	  0.75000	  0.45620	 -0.03151	  1.27720	709.46698	 23.30	
 12.013	142.081	  1.20167	  0.25834	  0.95746	  0.88719	  0.33037	 -0.03393	  1.27142	709.48199	 23.30	
 12.006	123.113	  1.20332	  0.36009	  0.83733	  0.99474	  0.24135	 -0.04180	  1.27317	709.40002	 23.30	
 12.007	104.200	  1.20233	  0.49222	  0.69030	  1.05822	  0.18756	 -0.04478	  1.27336	709.48499	 23.30	
 11.989	 85.301	  1.19710	  0.63845	  0.53555	  1.06343	  0.17626	 -0.04371	  1.26867	709.30701	 23.30	
 12.013	 66.294	  1.19840	  0.78945	  0.39545	  1.02205	  0.20770	 -0.04221	  1.27042	709.46198	 23.30	
 12.012	 47.388	  1.19926	  0.92214	  0.28110	  0.93181	  0.27887	 -0.03793	  1.27303	709.34601	 23.30	
 11.990	 28.440	  1.19876	  1.01969	  0.19932	  0.80300	  0.38585	 -0.03401	  1.27340	709.38599	 23.30	
 11.991	  9.464	  1.19740	  1.06842	  0.15947	  0.65267	  0.52187	 -0.03292	  1.27240	709.43103	 23.30	
 11.991	 -9.464	  1.19418	  1.06297	  0.16126	  0.50058	  0.67147	 -0.03044	  1.26715	709.33899	 23.30	
 11.990	-28.440	  1.19669	  1.01041	  0.20382	  0.36517	  0.82078	 -0.03614	  1.27308	709.38397	 23.30	
 12.012	-47.388	  1.19248	  0.90497	  0.28613	  0.25796	  0.94471	 -0.03867	  1.26808	709.33197	 23.30	
 12.013	-66.294	  1.19373	  0.76921	  0.40373	  0.18584	  1.03467	 -0.04188	  1.26829	709.38599	 23.30	
 11.989	-85.301	  1.20175	  0.62024	  0.55146	  0.16037	  1.07905	 -0.04372	  1.27532	709.48199	 23.30	
 12.007	-104.200	  1.20460	  0.47104	  0.70589	  0.17217	  1.06763	 -0.04278	  1.27730	709.44000	 23.30	
 12.006	-123.113	  1.20221	  0.34187	  0.84909	  0.22721	  1.00019	 -0.03542	  1.27274	709.42499	 23.30	
 12.013	-142.081	  1.20674	  0.24502	  0.96943	  0.32379	  0.89173	 -0.03143	  1.27555	709.46399	 23.30	
 12.009	-161.059	  1.20344	  0.18381	  1.04512	  0.44814	  0.74985	 -0.03537	  1.27270	709.45001	 23.30	
 16.000	180.000	  1.13053	 -0.00161	  1.15927	  0.54129	  0.54039	 -0.05414	  1.27205	709.44000	 23.30	
 15.990	-165.604	  1.13281	  0.00833	  1.14412	  0.39642	  0.69025	 -0.05635	  1.27332	709.37201	 23.30	
 16.002	-151.165	  1.13294	  0.05343	  1.08597	  0.26733	  0.83603	 -0.05528	  1.27365	709.42798	 23.30	
 16.002	-136.836	  1.12956	  0.12037	  0.99050	  0.15336	  0.96517	 -0.05516	  1.27314	709.48798	 23.30	
 15.995	-122.439	  1.13434	  0.21967	  0.87075	  0.07065	  1.07330	 -0.05540	  1.27906	707.75098	 23.30	
 15.993	-107.966	  1.13219	  0.34318	  0.72551	  0.01397	  1.14302	 -0.05695	  1.27849	709.37500	 23.30	
 16.005	-93.629	  1.12619	  0.48301	  0.57220	 -0.01083	  1.16926	 -0.05326	  1.27464	708.57898	 23.30	
 15.992	-79.234	  1.12855	  0.63581	  0.42489	 -0.00524	  1.16318	 -0.05163	  1.27841	709.31500	 23.30	
 16.009	-64.774	  1.12269	  0.78505	  0.28446	  0.02736	  1.11120	 -0.04741	  1.27503	709.32501	 23.30	
 15.997	-50.364	  1.12185	  0.92211	  0.17184	  0.09520	  1.02368	 -0.04933	  1.27359	709.33899	 23.30	
 15.997	-36.045	  1.12222	  1.03657	  0.08042	  0.18705	  0.90553	 -0.04776	  1.27394	709.34100	 23.30	
 16.000	-21.597	  1.12352	  1.11889	  0.02155	  0.30533	  0.76807	 -0.04471	  1.27456	709.34900	 23.30	
 16.003	 -7.169	  1.12312	  1.16043	 -0.00870	  0.44473	  0.61681	 -0.04428	  1.27332	709.55798	 23.30	
 16.003	  7.169	  1.12493	  1.16406	 -0.00620	  0.59587	  0.47065	 -0.04320	  1.27574	709.37201	 23.30	
 16.000	 21.597	  1.12403	  1.12615	  0.02145	  0.74507	  0.33254	 -0.04723	  1.27410	709.39697	 23.30	
 15.997	 36.045	  1.12452	  1.05054	  0.07965	  0.88539	  0.21522	 -0.05193	  1.27364	709.34698	 23.30	
 15.997	 50.364	  1.12664	  0.94455	  0.16489	  1.00711	  0.12036	 -0.05788	  1.27552	709.38397	 23.30	
 16.009	 64.774	  1.12694	  0.81231	  0.27568	  1.09575	  0.05472	 -0.06079	  1.27432	709.33801	 23.30	
 15.992	 79.234	  1.12929	  0.66496	  0.41007	  1.15014	  0.01748	 -0.06733	  1.27491	709.41199	 23.30	
 16.005	 93.629	  1.12965	  0.51616	  0.55760	  1.16177	  0.01276	 -0.06551	  1.27296	709.28198	 23.40	
 15.993	107.966	  1.13323	  0.37472	  0.70808	  1.13759	  0.03352	 -0.06428	  1.27518	707.75299	 23.40	
 15.995	122.439	  1.13071	  0.24447	  0.85208	  1.06835	  0.08273	 -0.06392	  1.27360	709.31000	 23.40	
 16.002	136.836	  1.13033	  0.14268	  0.97725	  0.96748	  0.16271	 -0.05858	  1.27155	709.25897	 23.40	
 16.002	151.165	  1.13183	  0.06572	  1.07620	  0.84072	  0.26867	 -0.05268	  1.27437	709.32898	 23.40	
 15.990	165.604	  1.12779	  0.01502	  1.13524	  0.68919	  0.39723	 -0.05394	  1.26965	709.29401	 23.40	
 20.003	168.362	  1.03570	 -0.15595	  1.20848	  0.61790	  0.32620	 -0.05403	  1.27210	709.24500	 23.40	
 20.008	156.764	  1.03712	 -0.11961	  1.16200	  0.76644	  0.19806	 -0.05570	  1.27355	709.29797	 23.40	
 20.000	145.147	  1.04102	 -0.06016	  1.08523	  0.90715	  0.08612	 -0.05765	  1.27907	709.25897	 23.40	
 19.995	133.545	  1.04281	  0.02406	  0.97732	  1.02720	 -0.00263	 -0.06112	  1.27837	709.13501	 23.40	
 20.009	121.926	  1.03510	  0.12117	  0.84310	  1.11895	 -0.07877	 -0.05993	  1.27204	709.28400	 23.40	
 20.005	110.327	  1.03912	  0.24145	  0.70349	  1.18966	 -0.12804	 -0.05682	  1.27663	709.32501	 23.40	
 19.989	 98.733	  1.03297	  0.37176	  0.55257	  1.21930	 -0.15632	 -0.05925	  1.27145	709.26703	 23.40	
 19.999	 87.075	  1.03164	  0.51754	  0.40252	  1.22512	 -0.16379	 -0.06273	  1.27295	709.30103	 23.40	
 19.992	 75.457	  1.03026	  0.66449	  0.26522	  1.19843	 -0.14673	 -0.06220	  1.27149	709.19098	 23.40	
 20.009	 63.844	  1.02979	  0.80991	  0.13955	  1.14391	 -0.11035	 -0.05792	  1.27550	709.33002	 23.40	
 19.989	 52.269	  1.02578	  0.93927	  0.03332	  1.05295	 -0.04835	 -0.05719	  1.27198	709.31799	 23.40	
 19.999	 40.602	  1.02862	  1.05712	 -0.05583	  0.94331	  0.03281	 -0.05196	  1.27801	709.25598	 23.40	
 20.004	 29.051	  1.02385	  1.14180	 -0.12108	  0.80528	  0.13731	 -0.04526	  1.27304	709.23401	 23.40	
 20.005	 17.433	  1.02688	  1.20409	 -0.16510	  0.66380	  0.25869	 -0.03973	  1.27754	709.11798	 23.40	
 20.006	  5.780	  1.02197	  1.22784	 -0.18510	  0.51318	  0.39311	 -0.03702	  1.27224	709.30798	 23.40	
 20.006	 -5.780	  1.02396	  1.22834	 -0.18369	  0.36939	  0.53997	 -0.03702	  1.27541	709.32501	 23.40	
 20.005	-17.433	  1.02428	  1.19458	 -0.15870	  0.23303	  0.69056	 -0.03724	  1.27565	709.30200	 23.40	
 20.004	-29.051	  1.02333	  1.12847	 -0.11247	  0.11189	  0.83373	 -0.04309	  1.27495	709.25897	 23.40	
 19.999	-40.602	  1.02066	  1.03244	 -0.04459	  0.01133	  0.96046	 -0.04119	  1.27100	709.40900	 23.40	
 19.989	-52.269	  1.02119	  0.91217	  0.04443	 -0.07216	  1.07223	 -0.04373	  1.27176	709.33197	 23.40	
 20.009	-63.844	  1.02025	  0.77357	  0.15355	 -0.13221	  1.15340	 -0.04291	  1.26968	709.28400	 23.40	
 19.992	-75.457	  1.02663	  0.63043	  0.28323	 -0.16734	  1.21134	 -0.03879	  1.27413	709.36902	 23.40	
 19.999	-87.075	  1.02218	  0.47690	  0.42171	 -0.18374	  1.22754	 -0.03953	  1.26778	709.26703	 23.40	
 19.989	-98.733	  1.02766	  0.33362	  0.57103	 -0.17649	  1.22260	 -0.04857	  1.27144	709.29102	 23.40	
 20.005	-110.327	  1.02777	  0.20290	  0.71775	 -0.14583	  1.18299	 -0.04947	  1.26954	709.20001	 23.40	
 20.009	-121.926	  1.03421	  0.08776	  0.86310	 -0.09194	  1.11710	 -0.05644	  1.27598	709.17499	 23.40	
 19.995	-133.545	  1.03222	 -0.00564	  0.98531	 -0.01544	  1.01466	 -0.05819	  1.27108	709.23401	 23.40	
 20.000	-145.147	  1.03244	 -0.08311	  1.09021	  0.08047	  0.89160	 -0.05534	  1.27022	709.13202	 23.40	
 20.008	-156.764	  1.03837	 -0.13415	  1.17183	  0.19761	  0.75893	 -0.05490	  1.27691	709.26300	 23.40	
 20.003	-168.362	  1.03868	 -0.16392	  1.21539	  0.32898	  0.61322	 -0.05419	  1.27535	709.23602	 23.40	
 20.000	180.000	  1.03850	 -0.16974	  1.22834	  0.47199	  0.46739	 -0.05318	  1.27458	709.32098	 23.40	
