FileType=PCF
NHL=14
Date=03/13/19	15:03:45
Facility=APL
Serial=16071-4
Customer=NASA
NP=6
Mach=0.080000
Calibration=1:1
CalPts=490
TstPts=95
PortNumbering=AP Standard
Units=Torr C m/s kg/m^3 deg mm 
Theta[deg]	Phi[deg]	P1[Torr]	P2[Torr]	P3[Torr]	P4[Torr]	P5[Torr]	P6[Torr]	Pt[Torr]	Ps[Abs,Torr]	Ts[C]	
  0.000	  0.000	  3.18240	  1.50832	  1.33774	  1.46839	  1.37988	  0.07203	  3.17521	709.84003	 26.30	
  1.691	128.401	  3.18225	  1.41185	  1.42311	  1.57692	  1.26413	  0.06863	  3.17656	709.75000	 26.30	
  1.692	 77.194	  3.18032	  1.52010	  1.29164	  1.58399	  1.23592	  0.07096	  3.17496	709.72998	 26.30	
  1.699	 26.182	  3.17851	  1.62007	  1.19326	  1.50006	  1.30304	  0.07016	  3.17386	709.78003	 26.30	
  1.699	-26.182	  3.17937	  1.61710	  1.20315	  1.38261	  1.42814	  0.06709	  3.17394	709.75000	 26.30	
  1.692	-77.194	  3.18177	  1.51510	  1.30914	  1.31841	  1.51210	  0.06442	  3.17571	709.77002	 26.30	
  1.691	-128.401	  3.18024	  1.41295	  1.42031	  1.35527	  1.48101	  0.06200	  3.17228	709.84003	 26.30	
  1.700	180.000	  3.18268	  1.35957	  1.47977	  1.46679	  1.37400	  0.06276	  3.17652	709.73999	 26.30	
  3.400	180.000	  3.17905	  1.19097	  1.62766	  1.44826	  1.34614	  0.04676	  3.17346	709.71002	 26.30	
  3.388	-152.325	  3.17883	  1.22309	  1.59336	  1.31356	  1.48657	  0.04462	  3.17376	709.75000	 26.30	
  3.397	-124.529	  3.18010	  1.31117	  1.49127	  1.20393	  1.61004	  0.04170	  3.17653	709.84003	 26.30	
  3.399	-96.763	  3.17410	  1.43726	  1.34913	  1.14738	  1.67042	  0.04782	  3.17062	709.60999	 26.30	
  3.394	-69.283	  3.17589	  1.57947	  1.20607	  1.15684	  1.64929	  0.04939	  3.17418	709.71997	 26.30	
  3.400	-41.398	  3.17289	  1.71010	  1.08525	  1.22245	  1.55802	  0.05353	  3.17389	709.70001	 26.20	
  3.401	-14.021	  3.17155	  1.78907	  1.01642	  1.34119	  1.41901	  0.06287	  3.17515	709.81000	 26.20	
  3.401	 14.021	  3.17156	  1.79191	  1.01164	  1.48784	  1.27092	  0.06771	  3.17600	709.82001	 26.20	
  3.400	 41.398	  3.17039	  1.71493	  1.06976	  1.62475	  1.15039	  0.07034	  3.17460	709.81000	 26.20	
  3.394	 69.283	  3.17155	  1.58648	  1.18068	  1.72420	  1.07205	  0.06865	  3.17398	709.79999	 26.20	
  3.399	 96.763	  3.17259	  1.44034	  1.32285	  1.75260	  1.05565	  0.06251	  3.17320	709.71002	 26.20	
  3.397	124.529	  3.17749	  1.30912	  1.47157	  1.70365	  1.10778	  0.05768	  3.17510	709.64001	 26.20	
  3.388	152.325	  3.17805	  1.22161	  1.58063	  1.58905	  1.21032	  0.05072	  3.17365	709.69000	 26.20	
  5.099	161.165	  3.16770	  1.02996	  1.75530	  1.58461	  1.16811	  0.03223	  3.17347	709.73999	 26.20	
  5.109	142.013	  3.16641	  1.09599	  1.66617	  1.73141	  1.03546	  0.03662	  3.17566	709.71002	 26.20	
  5.095	123.033	  3.16070	  1.20164	  1.53271	  1.84233	  0.93898	  0.04166	  3.17409	709.56000	 26.20	
  5.105	104.191	  3.15920	  1.34146	  1.37628	  1.90719	  0.88275	  0.04822	  3.17569	709.63000	 26.20	
  5.093	 85.207	  3.15636	  1.49746	  1.21760	  1.91114	  0.87582	  0.05452	  3.17635	709.65997	 26.20	
  5.104	 66.290	  3.14963	  1.65208	  1.06783	  1.85838	  0.90953	  0.05877	  3.17301	709.56000	 26.20	
  5.094	 47.331	  3.14977	  1.79437	  0.95024	  1.75684	  0.98956	  0.05979	  3.17570	709.64001	 26.20	
  5.089	 28.397	  3.14727	  1.89603	  0.87005	  1.61686	  1.10396	  0.06002	  3.17413	709.75000	 26.20	
  5.096	  9.576	  3.15009	  1.95307	  0.83140	  1.46449	  1.24759	  0.05863	  3.17656	709.60999	 26.20	
  5.096	 -9.576	  3.14634	  1.94869	  0.83436	  1.30563	  1.40508	  0.05188	  3.17175	709.70001	 26.20	
  5.089	-28.397	  3.15064	  1.89061	  0.87998	  1.16717	  1.55932	  0.04463	  3.17193	709.75000	 26.20	
  5.094	-47.331	  3.15702	  1.78658	  0.97096	  1.05846	  1.69582	  0.03391	  3.17491	709.75000	 26.20	
  5.104	-66.290	  3.15665	  1.64160	  1.09679	  0.98650	  1.78919	  0.02903	  3.17049	709.78998	 26.20	
  5.093	-85.207	  3.16260	  1.48413	  1.25295	  0.96278	  1.82898	  0.02439	  3.17143	709.76001	 26.20	
  5.105	-104.191	  3.16416	  1.33095	  1.41312	  0.97811	  1.81728	  0.02207	  3.17235	709.76001	 26.20	
  5.095	-123.033	  3.16794	  1.19809	  1.56494	  1.04173	  1.74336	  0.02197	  3.17373	709.65997	 26.20	
  5.109	-142.013	  3.17013	  1.09393	  1.68972	  1.14231	  1.62765	  0.02435	  3.17305	709.65997	 26.20	
  5.099	-161.165	  3.16949	  1.02764	  1.76720	  1.27869	  1.47435	  0.02508	  3.17411	709.64001	 26.10	
  5.100	180.000	  3.16661	  1.00643	  1.78947	  1.43100	  1.31574	  0.02894	  3.17119	709.69000	 26.10	
  6.800	180.000	  3.14831	  0.81943	  1.94880	  1.40414	  1.28429	  0.00389	  3.17271	709.72998	 26.10	
  6.796	-166.229	  3.14784	  0.83203	  1.93223	  1.24740	  1.44402	 -0.00016	  3.17169	709.62000	 26.10	
  6.808	-152.311	  3.14975	  0.88002	  1.87699	  1.10370	  1.60379	  0.00081	  3.17446	709.58002	 26.10	
  6.795	-138.383	  3.14639	  0.95802	  1.77806	  0.98438	  1.74144	 -0.00229	  3.17033	709.72998	 26.10	
  6.792	-124.591	  3.14673	  1.06302	  1.65561	  0.88999	  1.85816	 -0.00470	  3.17270	709.70001	 26.10	
  6.787	-110.754	  3.14496	  1.19269	  1.50541	  0.82031	  1.94341	 -0.00592	  3.17418	709.69000	 26.10	
  6.800	-96.985	  3.13904	  1.33700	  1.34656	  0.77910	  1.98876	 -0.00240	  3.17135	709.65997	 26.10	
  6.800	-83.015	  3.13706	  1.49355	  1.18673	  0.77474	  1.98896	  0.00041	  3.17350	709.59998	 26.10	
  6.787	-69.246	  3.13217	  1.64821	  1.03598	  0.80080	  1.94558	  0.00367	  3.17345	709.67999	 26.10	
  6.792	-55.409	  3.12574	  1.79783	  0.89848	  0.85647	  1.86122	  0.00730	  3.17224	709.75000	 26.10	
  6.795	-41.617	  3.12311	  1.92495	  0.79062	  0.94269	  1.74936	  0.01722	  3.17361	709.71997	 26.10	
  6.808	-27.689	  3.11593	  2.02417	  0.70549	  1.05595	  1.60553	  0.02308	  3.17137	709.71997	 26.10	
  6.796	-13.771	  3.11328	  2.08590	  0.65741	  1.19288	  1.45059	  0.03035	  3.17176	709.78998	 26.10	
  6.800	  0.000	  3.11449	  2.11131	  0.63860	  1.34579	  1.29298	  0.03878	  3.17510	709.78003	 26.10	
  6.796	 13.771	  3.11134	  2.09048	  0.65162	  1.49842	  1.14373	  0.04331	  3.17171	709.67999	 26.10	
  6.808	 27.689	  3.11164	  2.03203	  0.69315	  1.65623	  1.00178	  0.04506	  3.17346	709.75000	 26.10	
  6.795	 41.617	  3.11219	  1.93278	  0.76769	  1.80055	  0.88209	  0.04668	  3.17219	709.71002	 26.10	
  6.792	 55.409	  3.11438	  1.80855	  0.86780	  1.91879	  0.79016	  0.04448	  3.17409	709.77002	 26.10	
  6.787	 69.246	  3.11649	  1.66162	  0.99215	  2.00509	  0.72615	  0.04029	  3.17273	709.65997	 26.10	
  6.800	 83.015	  3.11786	  1.50385	  1.13760	  2.05331	  0.69259	  0.03747	  3.17024	709.72998	 26.10	
  6.800	 96.985	  3.12422	  1.34628	  1.29622	  2.06411	  0.69109	  0.03106	  3.17322	709.75000	 26.10	
  6.787	110.754	  3.13052	  1.20127	  1.45784	  2.02988	  0.72420	  0.02565	  3.17425	709.75000	 26.10	
  6.792	124.591	  3.13228	  1.06902	  1.60962	  1.95617	  0.78381	  0.02212	  3.17114	709.69000	 26.10	
  6.795	138.383	  3.13611	  0.96487	  1.74145	  1.85118	  0.87190	  0.01780	  3.17091	709.71997	 26.10	
  6.808	152.311	  3.14190	  0.88593	  1.85096	  1.71545	  0.99271	  0.01329	  3.17354	709.76001	 26.10	
  6.796	166.229	  3.14747	  0.83602	  1.92137	  1.56186	  1.13330	  0.00731	  3.17405	709.71997	 26.10	
  8.491	168.704	  3.11260	  0.64466	  2.07841	  1.53498	  1.08911	 -0.01908	  3.17271	709.66998	 26.10	
  8.502	157.493	  3.10755	  0.68497	  2.01532	  1.69661	  0.93874	 -0.01601	  3.17201	709.63000	 26.00	
  8.494	146.194	  3.10329	  0.75039	  1.92102	  1.84640	  0.80638	 -0.01141	  3.17176	709.52002	 26.00	
  8.495	135.039	  3.09933	  0.83889	  1.80209	  1.97525	  0.70042	 -0.00518	  3.17348	709.64001	 26.00	
  8.487	123.723	  3.09290	  0.95230	  1.65683	  2.08127	  0.61307	 -0.00185	  3.17189	709.65002	 26.00	
  8.492	112.575	  3.09125	  1.08298	  1.50442	  2.16159	  0.54997	  0.00197	  3.17551	709.59998	 26.00	
  8.510	101.220	  3.08252	  1.22999	  1.33495	  2.20786	  0.50734	  0.00413	  3.17210	709.53998	 26.00	
  8.500	 90.000	  3.07823	  1.38996	  1.16970	  2.21667	  0.49562	  0.01141	  3.17344	709.65997	 26.00	
  8.510	 78.780	  3.07529	  1.54984	  1.01542	  2.19107	  0.51163	  0.01627	  3.17406	709.65002	 26.00	
  8.492	 67.425	  3.07016	  1.71205	  0.86936	  2.12468	  0.55577	  0.01677	  3.17239	709.73999	 26.00	
  8.487	 56.277	  3.06716	  1.86161	  0.74276	  2.03384	  0.61860	  0.01993	  3.17265	709.71002	 26.00	
  8.495	 44.961	  3.06626	  1.99655	  0.63801	  1.91415	  0.71142	  0.02414	  3.17264	709.66998	 26.00	
  8.494	 33.806	  3.06325	  2.10582	  0.55388	  1.77521	  0.81945	  0.02364	  3.17318	709.64001	 26.00	
  8.502	 22.507	  3.06299	  2.18846	  0.49598	  1.61989	  0.95278	  0.02115	  3.17208	709.69000	 26.00	
  8.491	 11.296	  3.06299	  2.23760	  0.46262	  1.45467	  1.10293	  0.01894	  3.17228	709.65002	 26.00	
  8.500	  0.000	  3.06671	  2.25838	  0.44970	  1.29753	  1.25699	  0.01336	  3.17559	709.53003	 26.00	
  8.491	-11.296	  3.06910	  2.23657	  0.46736	  1.14056	  1.42203	  0.00606	  3.17405	709.59998	 26.00	
  8.502	-22.507	  3.06984	  2.18442	  0.50528	  0.99342	  1.58442	 -0.00340	  3.17352	709.58002	 26.00	
  8.494	-33.806	  3.07570	  2.09622	  0.57577	  0.86920	  1.73769	 -0.00852	  3.17386	709.65997	 26.00	
  8.495	-44.961	  3.08060	  1.98147	  0.66983	  0.76477	  1.87538	 -0.01248	  3.17391	709.66998	 26.00	
  8.487	-56.277	  3.08548	  1.84579	  0.78584	  0.68128	  1.99131	 -0.01975	  3.17347	709.59003	 26.00	
  8.492	-67.425	  3.09148	  1.69528	  0.91984	  0.62417	  2.07553	 -0.02487	  3.17376	709.71997	 26.00	
  8.510	-78.780	  3.09478	  1.53365	  1.07161	  0.58956	  2.13027	 -0.02675	  3.17157	709.71002	 26.00	
  8.500	-90.000	  3.09966	  1.37233	  1.23380	  0.58111	  2.14758	 -0.03008	  3.17240	709.62000	 26.00	
  8.510	-101.220	  3.10259	  1.21508	  1.39839	  0.59918	  2.12839	 -0.03262	  3.17085	709.77002	 26.00	
  8.492	-112.575	  3.10817	  1.06712	  1.56550	  0.64697	  2.07102	 -0.03472	  3.17287	709.77002	 26.00	
  8.487	-123.723	  3.11039	  0.94058	  1.71457	  0.71650	  1.98390	 -0.03341	  3.17288	709.84003	 26.00	
  8.495	-135.039	  3.11564	  0.83208	  1.85071	  0.81334	  1.86666	 -0.03033	  3.17331	709.71002	 26.00	
  8.494	-146.194	  3.11718	  0.74239	  1.96184	  0.92795	  1.72872	 -0.02559	  3.17402	709.77002	 26.00	
  8.502	-157.493	  3.11593	  0.67645	  2.04444	  1.05991	  1.57373	 -0.02841	  3.17204	709.72998	 26.00	
  8.491	-168.704	  3.11553	  0.64207	  2.09018	  1.21247	  1.41053	 -0.02464	  3.17311	709.73999	 25.90	
  8.500	180.000	  3.11433	  0.62673	  2.10339	  1.37230	  1.24506	 -0.02291	  3.17183	709.65997	 26.00	
 10.200	180.000	  3.06956	  0.44158	  2.24824	  1.33589	  1.19847	 -0.05172	  3.17410	709.62000	 26.00	
 10.191	-170.497	  3.07241	  0.45308	  2.23856	  1.17394	  1.36540	 -0.05403	  3.17391	709.71997	 26.00	
 10.210	-161.034	  3.07212	  0.48303	  2.19883	  1.01826	  1.53197	 -0.05385	  3.17325	709.79999	 25.90	
 10.194	-151.526	  3.07028	  0.53601	  2.12770	  0.87598	  1.69421	 -0.05261	  3.17112	709.59003	 26.00	
 10.190	-142.105	  3.06830	  0.60885	  2.03107	  0.74846	  1.84502	 -0.05516	  3.16996	709.71997	 25.90	
 10.215	-132.646	  3.06676	  0.70320	  1.91052	  0.63684	  1.98436	 -0.05665	  3.17281	709.65002	 25.90	
 10.203	-123.092	  3.06580	  0.81596	  1.76904	  0.54571	  2.10180	 -0.05832	  3.17313	709.78998	 25.90	
 10.192	-113.678	  3.06245	  0.94257	  1.61470	  0.47690	  2.18961	 -0.05725	  3.17417	709.77002	 25.90	
 10.208	-104.249	  3.05703	  1.08620	  1.44857	  0.42830	  2.25125	 -0.05571	  3.17138	709.71997	 25.90	
 10.210	-94.801	  3.05428	  1.24254	  1.27984	  0.40383	  2.28321	 -0.05356	  3.17310	709.76001	 25.90	
 10.210	-85.199	  3.04683	  1.40462	  1.11129	  0.39735	  2.28408	 -0.05355	  3.17078	709.82001	 25.90	
 10.208	-75.751	  3.04033	  1.56777	  0.95134	  0.41432	  2.25052	 -0.05176	  3.16808	709.75000	 25.90	
 10.192	-66.322	  3.03786	  1.73086	  0.80409	  0.45061	  2.19406	 -0.05088	  3.17249	709.71002	 25.90	
 10.203	-56.908	  3.03090	  1.88352	  0.66790	  0.50468	  2.10777	 -0.04694	  3.17202	709.75000	 25.90	
 10.215	-47.354	  3.02537	  2.02617	  0.54969	  0.58401	  1.99438	 -0.04256	  3.17248	709.71997	 25.90	
 10.190	-37.895	  3.01992	  2.15032	  0.45143	  0.68625	  1.85734	 -0.03953	  3.17227	709.64001	 25.90	
 10.194	-28.474	  3.01600	  2.25260	  0.37130	  0.80309	  1.70545	 -0.03437	  3.17312	709.79999	 25.90	
 10.210	-18.966	  3.01186	  2.32994	  0.31370	  0.93430	  1.54697	 -0.02855	  3.17411	709.73999	 25.90	
 10.191	 -9.503	  3.00525	  2.37197	  0.28217	  1.08346	  1.37954	 -0.01800	  3.16944	709.83002	 25.90	
 10.200	  0.000	  3.00571	  2.39066	  0.26692	  1.24361	  1.21002	 -0.01079	  3.17209	709.65997	 25.90	
 10.191	  9.503	  3.00213	  2.37593	  0.27351	  1.40428	  1.05053	 -0.00738	  3.17230	709.72998	 25.90	
 10.210	 18.966	  3.00192	  2.33730	  0.29806	  1.56907	  0.90073	 -0.00669	  3.17307	709.65997	 25.90	
 10.194	 28.474	  3.00237	  2.26288	  0.34847	  1.73249	  0.75926	 -0.00116	  3.17271	709.76001	 25.90	
 10.190	 37.895	  3.00309	  2.16407	  0.41841	  1.88250	  0.64019	 -0.00140	  3.17137	709.73999	 25.90	
 10.215	 47.354	  3.00314	  2.04346	  0.50495	  2.02103	  0.53321	 -0.00398	  3.16998	709.75000	 25.90	
 10.203	 56.908	  3.00678	  1.90174	  0.61566	  2.14098	  0.44787	 -0.00747	  3.16937	709.64001	 25.90	
 10.192	 66.322	  3.01236	  1.75187	  0.74275	  2.23639	  0.38662	 -0.01143	  3.17292	709.73999	 25.90	
 10.208	 75.751	  3.01629	  1.59059	  0.88416	  2.30700	  0.34066	 -0.01323	  3.17292	709.62000	 25.90	
 10.210	 85.199	  3.01874	  1.42438	  1.03740	  2.34443	  0.31805	 -0.01348	  3.17110	709.65997	 25.90	
 10.210	 94.801	  3.02205	  1.25932	  1.20028	  2.35378	  0.31312	 -0.01979	  3.17083	709.67999	 25.90	
 10.208	104.249	  3.03076	  1.10360	  1.37145	  2.33461	  0.33359	 -0.02486	  3.17387	709.69000	 25.90	
 10.192	113.678	  3.03454	  0.95862	  1.53708	  2.28090	  0.37522	 -0.02806	  3.17150	709.71997	 25.90	
 10.203	123.092	  3.04261	  0.83017	  1.69754	  2.20067	  0.43991	 -0.03000	  3.17374	709.67999	 25.90	
 10.215	132.646	  3.04650	  0.71188	  1.84772	  2.09316	  0.52268	 -0.03360	  3.17255	709.69000	 25.90	
 10.190	142.105	  3.05044	  0.61759	  1.97710	  1.96281	  0.62780	 -0.03662	  3.16924	709.72998	 25.90	
 10.194	151.526	  3.05586	  0.53902	  2.08628	  1.82165	  0.74446	 -0.04519	  3.17207	709.64001	 25.90	
 10.210	161.034	  3.06075	  0.48282	  2.17246	  1.66262	  0.88598	 -0.04625	  3.17169	709.64001	 25.90	
 10.191	170.497	  3.06540	  0.45342	  2.22405	  1.50095	  1.03693	 -0.04895	  3.17362	709.79999	 25.90	
 11.899	171.783	  3.00874	  0.26728	  2.36156	  1.45516	  0.98402	 -0.07539	  3.17312	709.71997	 25.90	
 11.890	163.610	  3.00282	  0.29642	  2.31110	  1.62080	  0.82931	 -0.07539	  3.17066	709.67999	 25.90	
 11.889	155.445	  3.00064	  0.34359	  2.23852	  1.78197	  0.69030	 -0.07392	  3.17247	709.67999	 25.90	
 11.909	147.299	  2.99515	  0.40575	  2.14151	  1.93345	  0.56047	 -0.06997	  3.17216	709.73999	 25.90	
 11.902	139.148	  2.98752	  0.48604	  2.02042	  2.07405	  0.44625	 -0.06793	  3.17040	709.72998	 25.90	
 11.894	130.867	  2.98378	  0.58657	  1.88280	  2.20002	  0.35066	 -0.06268	  3.17187	709.75000	 25.90	
 11.897	122.732	  2.97487	  0.70166	  1.72835	  2.30384	  0.26924	 -0.06153	  3.16890	709.65997	 25.90	
 11.903	114.597	  2.97315	  0.83101	  1.56957	  2.38830	  0.21079	 -0.05863	  3.17450	709.71997	 25.80	
 11.893	106.346	  2.96647	  0.97404	  1.39938	  2.44565	  0.16568	 -0.05498	  3.17239	709.71002	 25.80	
 11.892	 98.155	  2.96153	  1.12864	  1.22996	  2.47507	  0.14399	 -0.05267	  3.17261	709.79999	 25.80	
 11.900	 90.000	  2.95627	  1.28899	  1.06272	  2.48088	  0.13603	 -0.04695	  3.17140	709.72998	 25.80	
 11.892	 81.845	  2.94926	  1.45283	  0.90290	  2.45714	  0.14556	 -0.04472	  3.16957	709.60999	 25.80	
 11.893	 73.654	  2.94987	  1.62307	  0.75140	  2.41057	  0.17552	 -0.04440	  3.17540	709.60999	 25.80	
 11.903	 65.403	  2.94278	  1.78490	  0.61075	  2.33508	  0.21884	 -0.04419	  3.17168	709.71002	 25.80	
 11.897	 57.268	  2.93898	  1.93794	  0.48713	  2.23909	  0.28077	 -0.04001	  3.17177	709.62000	 25.80	
 11.894	 49.133	  2.93637	  2.08114	  0.37745	  2.12100	  0.36065	 -0.03626	  3.17403	709.57001	 25.80	
 11.902	 40.852	  2.93172	  2.20978	  0.28454	  1.98106	  0.46013	 -0.03037	  3.17051	709.66998	 25.80	
 11.909	 32.701	  2.93076	  2.32092	  0.20465	  1.83232	  0.57159	 -0.02958	  3.17176	709.65997	 25.80	
 11.889	 24.555	  2.93073	  2.40405	  0.15254	  1.67427	  0.70207	 -0.03084	  3.17185	709.65002	 25.80	
 11.890	 16.390	  2.93154	  2.46633	  0.11258	  1.50928	  0.84303	 -0.03509	  3.17145	709.56000	 25.80	
 11.899	  8.217	  2.93263	  2.50122	  0.09439	  1.34079	  1.00085	 -0.03682	  3.17123	709.62000	 25.80	
 11.900	  0.000	  2.93254	  2.51528	  0.08599	  1.17990	  1.15835	 -0.04072	  3.17191	709.54999	 25.80	
 11.899	 -8.217	  2.93799	  2.50113	  0.10030	  1.01944	  1.33012	 -0.04429	  3.17348	709.63000	 25.80	
 11.890	-16.390	  2.93863	  2.45595	  0.12934	  0.86863	  1.49756	 -0.05433	  3.16978	709.60999	 25.80	
 11.889	-24.555	  2.94374	  2.39012	  0.17773	  0.73352	  1.66053	 -0.06034	  3.17174	709.70001	 25.80	
 11.909	-32.701	  2.94827	  2.30252	  0.24131	  0.60698	  1.82236	 -0.06485	  3.17304	709.67999	 25.80	
 11.902	-40.852	  2.95448	  2.19077	  0.32393	  0.49623	  1.96975	 -0.06865	  3.17434	709.59003	 25.80	
 11.894	-49.133	  2.95880	  2.05714	  0.42820	  0.40527	  2.10154	 -0.06891	  3.17034	709.62000	 25.80	
 11.897	-57.268	  2.96664	  1.91576	  0.54628	  0.33524	  2.21129	 -0.07230	  3.17155	709.65997	 25.80	
 11.903	-65.403	  2.97171	  1.75926	  0.67823	  0.27712	  2.30180	 -0.07104	  3.17059	709.65997	 25.80	
 11.893	-73.654	  2.97752	  1.59602	  0.82702	  0.23984	  2.36693	 -0.07162	  3.16954	709.65002	 25.80	
 11.892	-81.845	  2.98527	  1.42997	  0.98546	  0.21994	  2.40677	 -0.07237	  3.17316	709.67999	 25.80	
 11.900	-90.000	  2.99093	  1.26785	  1.14898	  0.21476	  2.42163	 -0.07323	  3.17351	709.56000	 25.80	
 11.892	-98.155	  2.99314	  1.10925	  1.31568	  0.22975	  2.40463	 -0.07432	  3.17069	709.65002	 25.80	
 11.893	-106.346	  2.99763	  0.95451	  1.48900	  0.26164	  2.36313	 -0.07794	  3.17051	709.67999	 25.80	
 11.903	-114.597	  3.00169	  0.81268	  1.65608	  0.31150	  2.29531	 -0.07690	  3.17189	709.59998	 25.80	
 11.897	-122.732	  3.00718	  0.68913	  1.81190	  0.38079	  2.20440	 -0.07724	  3.17280	709.64001	 25.80	
 11.894	-130.867	  3.00890	  0.57445	  1.95655	  0.46572	  2.09069	 -0.07547	  3.17193	709.60999	 25.80	
 11.902	-139.148	  3.00853	  0.47485	  2.08661	  0.56895	  1.95339	 -0.07468	  3.16983	709.53003	 25.80	
 11.909	-147.299	  3.01376	  0.39800	  2.19550	  0.69079	  1.80715	 -0.07480	  3.17277	709.57001	 25.80	
 11.889	-155.445	  3.01611	  0.33696	  2.28128	  0.82438	  1.64682	 -0.07869	  3.17312	709.60999	 25.80	
 11.890	-163.610	  3.01352	  0.29301	  2.34000	  0.96749	  1.48296	 -0.07753	  3.17181	709.57001	 25.80	
 11.899	-171.783	  3.01275	  0.26947	  2.37449	  1.12425	  1.31478	 -0.07801	  3.17080	709.53003	 25.80	
 11.900	180.000	  3.01055	  0.25717	  2.38211	  1.28816	  1.14591	 -0.07772	  3.17182	709.56000	 25.80	
 13.600	180.000	  2.94052	  0.07556	  2.50859	  1.23167	  1.08457	 -0.10066	  3.17225	709.57001	 25.80	
 13.608	-172.853	  2.94184	  0.08009	  2.50576	  1.06905	  1.24882	 -0.10116	  3.17066	709.59003	 25.80	
 13.611	-165.583	  2.94391	  0.10263	  2.47642	  0.90909	  1.42329	 -0.09861	  3.17341	709.53998	 25.80	
 13.601	-158.353	  2.94230	  0.14039	  2.41964	  0.76427	  1.58587	 -0.09688	  3.16920	709.63000	 25.80	
 13.609	-151.210	  2.94378	  0.19322	  2.34333	  0.62788	  1.75045	 -0.09380	  3.16935	709.53998	 25.80	
 13.611	-143.999	  2.94218	  0.26090	  2.24598	  0.49978	  1.90914	 -0.09065	  3.17174	709.64001	 25.80	
 13.601	-136.825	  2.93873	  0.34617	  2.12798	  0.39121	  2.05299	 -0.08759	  3.16848	709.59003	 25.70	
 13.596	-129.640	  2.93831	  0.44223	  1.99648	  0.29595	  2.18345	 -0.08637	  3.17180	709.65997	 25.70	
 13.611	-122.431	  2.93386	  0.55364	  1.84711	  0.20960	  2.30107	 -0.08615	  3.17261	709.59998	 25.80	
 13.604	-115.211	  2.93193	  0.68218	  1.68688	  0.14613	  2.39415	 -0.08537	  3.17341	709.63000	 25.80	
 13.595	-108.042	  2.92603	  0.81746	  1.52050	  0.09507	  2.46364	 -0.08588	  3.17120	709.53998	 25.70	
 13.607	-100.793	  2.92271	  0.96615	  1.34875	  0.05703	  2.51642	 -0.08519	  3.17171	709.63000	 25.70	
 13.601	-93.617	  2.91937	  1.12333	  1.17823	  0.03901	  2.54245	 -0.08332	  3.17281	709.64001	 25.70	
 13.601	-86.383	  2.91126	  1.28333	  1.00984	  0.03336	  2.54081	 -0.08540	  3.16982	709.58002	 25.70	
 13.607	-79.207	  2.90528	  1.44753	  0.84717	  0.04079	  2.51788	 -0.08678	  3.17040	709.56000	 25.70	
 13.595	-71.958	  2.90203	  1.61469	  0.69489	  0.06706	  2.47223	 -0.08664	  3.17269	709.59003	 25.70	
 13.604	-64.789	  2.89463	  1.77727	  0.55141	  0.10444	  2.40334	 -0.08790	  3.17272	709.59003	 25.70	
 13.611	-57.569	  2.88738	  1.93550	  0.41976	  0.16121	  2.30859	 -0.08812	  3.16979	709.59998	 25.70	
 13.596	-50.360	  2.88295	  2.08492	  0.30213	  0.23123	  2.19750	 -0.08947	  3.17301	709.65002	 25.70	
 13.601	-43.175	  2.87794	  2.22000	  0.20028	  0.31633	  2.06881	 -0.09142	  3.17236	709.62000	 25.70	
 13.611	-36.001	  2.87136	  2.33856	  0.11136	  0.41349	  1.92663	 -0.08926	  3.17427	709.57001	 25.70	
 13.609	-28.790	  2.86709	  2.44119	  0.04278	  0.53145	  1.77117	 -0.08774	  3.17372	709.58002	 25.70	
 13.601	-21.647	  2.85985	  2.52098	 -0.01504	  0.65976	  1.60457	 -0.08246	  3.17187	709.71997	 25.70	
 13.611	-14.417	  2.85476	  2.58144	 -0.05518	  0.79907	  1.43761	 -0.07828	  3.17056	709.58002	 25.70	
 13.608	 -7.147	  2.85323	  2.62204	 -0.08075	  0.95053	  1.26842	 -0.07395	  3.17327	709.56000	 25.70	
 13.600	  0.000	  2.84966	  2.63308	 -0.09231	  1.10895	  1.09819	 -0.06939	  3.17143	709.66998	 25.70	
 13.608	  7.147	  2.84976	  2.62404	 -0.08590	  1.27009	  0.94186	 -0.06656	  3.17141	709.65997	 25.70	
 13.611	 14.417	  2.84778	  2.58959	 -0.06893	  1.44045	  0.78176	 -0.06799	  3.17125	709.59003	 25.70	
 13.601	 21.647	  2.84668	  2.53438	 -0.03427	  1.60647	  0.63862	 -0.06303	  3.16983	709.48999	 25.70	
 13.609	 28.790	  2.85048	  2.45793	  0.01538	  1.76825	  0.51106	 -0.06156	  3.17224	709.59998	 25.70	
 13.611	 36.001	  2.84845	  2.35845	  0.07466	  1.92558	  0.38606	 -0.06001	  3.17100	709.63000	 25.70	
 13.601	 43.175	  2.84982	  2.24198	  0.15201	  2.07311	  0.28167	 -0.06525	  3.17094	709.51001	 25.70	
 13.596	 50.360	  2.85266	  2.10632	  0.24737	  2.20526	  0.19194	 -0.07024	  3.16983	709.60999	 25.70	
 13.611	 57.569	  2.85704	  1.96200	  0.35479	  2.32450	  0.11466	 -0.07523	  3.17152	709.65997	 25.70	
 13.604	 64.789	  2.85983	  1.80290	  0.47788	  2.42489	  0.05216	 -0.08033	  3.17114	709.71002	 25.70	
 13.595	 71.958	  2.86356	  1.64252	  0.61286	  2.50140	  0.00914	 -0.08268	  3.16975	709.64001	 25.70	
 13.607	 79.207	  2.86839	  1.47112	  0.76130	  2.56037	 -0.02618	 -0.08133	  3.17111	709.67999	 25.70	
 13.601	 86.383	  2.87251	  1.30609	  0.91664	  2.59278	 -0.04222	 -0.08182	  3.17138	709.71997	 25.70	
 13.601	 93.617	  2.87892	  1.14546	  1.08086	  2.60042	 -0.04113	 -0.08400	  3.17089	709.66998	 25.70	
 13.607	100.793	  2.88043	  0.98649	  1.24717	  2.58431	 -0.02950	 -0.08814	  3.16934	709.67999	 25.70	
 13.595	108.042	  2.88894	  0.83685	  1.41968	  2.54631	 -0.00013	 -0.08970	  3.17002	709.87000	 25.70	
 13.604	115.211	  2.89669	  0.69524	  1.59056	  2.48584	  0.04255	 -0.09469	  3.17258	709.76001	 25.70	
 13.611	122.431	  2.90231	  0.56880	  1.75415	  2.40191	  0.10200	 -0.09586	  3.17218	709.76001	 25.70	
 13.596	129.640	  2.90924	  0.45617	  1.90829	  2.29953	  0.17609	 -0.09567	  3.17361	709.73999	 25.70	
 13.601	136.825	  2.91312	  0.35480	  2.04787	  2.17651	  0.26528	 -0.09837	  3.16931	709.67999	 25.70	
 13.611	143.999	  2.91918	  0.26992	  2.17736	  2.04089	  0.36812	 -0.10335	  3.17150	709.70001	 25.70	
 13.609	151.210	  2.92384	  0.20044	  2.28812	  1.88840	  0.49249	 -0.10389	  3.17148	709.67999	 25.70	
 13.601	158.353	  2.92978	  0.14695	  2.37682	  1.73324	  0.62267	 -0.10473	  3.17182	709.71997	 25.70	
 13.611	165.583	  2.93295	  0.10542	  2.44655	  1.56651	  0.76638	 -0.10243	  3.17035	709.67999	 25.70	
 13.608	172.853	  2.93735	  0.08169	  2.49107	  1.39609	  0.92297	 -0.10090	  3.16988	709.65002	 25.70	
 15.298	173.587	  2.85676	 -0.09048	  2.60725	  1.33452	  0.85862	 -0.12071	  3.17107	709.65002	 25.70	
 15.291	167.167	  2.85476	 -0.07364	  2.56896	  1.50392	  0.70094	 -0.12503	  3.17166	709.75000	 25.70	
 15.307	160.676	  2.84694	 -0.03948	  2.50539	  1.67164	  0.55352	 -0.12778	  3.16899	709.65997	 25.70	
 15.300	154.261	  2.84526	  0.00856	  2.42378	  1.83380	  0.42240	 -0.13275	  3.17181	709.65997	 25.70	
 15.288	147.854	  2.83969	  0.06937	  2.32245	  1.98781	  0.30295	 -0.13404	  3.17124	709.60999	 25.70	
 15.293	141.428	  2.83274	  0.14369	  2.20120	  2.13348	  0.19095	 -0.13585	  3.17007	709.70001	 25.70	
 15.299	134.985	  2.82909	  0.22790	  2.06924	  2.26784	  0.09306	 -0.13229	  3.17238	709.71002	 25.70	
 15.305	128.583	  2.82220	  0.32868	  1.92355	  2.38571	  0.01195	 -0.12624	  3.17073	709.67999	 25.70	
 15.309	122.142	  2.81544	  0.43949	  1.76496	  2.49108	 -0.06177	 -0.12630	  3.17214	709.76001	 25.70	
 15.304	115.711	  2.81082	  0.56515	  1.60168	  2.57559	 -0.11774	 -0.12476	  3.17345	709.76001	 25.70	
 15.297	109.291	  2.80314	  0.69944	  1.43208	  2.63869	 -0.16006	 -0.12576	  3.17017	709.72998	 25.70	
 15.293	102.897	  2.79825	  0.84113	  1.26502	  2.68474	 -0.19206	 -0.12521	  3.17174	709.78003	 25.70	
 15.293	 96.458	  2.79154	  0.99866	  1.09185	  2.70655	 -0.20855	 -0.12081	  3.17140	709.69000	 25.70	
 15.300	 90.000	  2.78750	  1.15763	  0.92769	  2.70923	 -0.21427	 -0.12149	  3.17333	709.72998	 25.70	
 15.293	 83.542	  2.77985	  1.31937	  0.76561	  2.68978	 -0.21134	 -0.12151	  3.17093	709.79999	 25.70	
 15.293	 77.103	  2.77859	  1.49064	  0.61557	  2.64777	 -0.18629	 -0.12248	  3.17343	709.70001	 25.70	
 15.297	 70.709	  2.77414	  1.65677	  0.47331	  2.58680	 -0.15409	 -0.12199	  3.17288	709.66998	 25.70	
 15.304	 64.289	  2.77142	  1.82155	  0.34405	  2.50620	 -0.10691	 -0.11713	  3.17469	709.75000	 25.70	
 15.309	 57.858	  2.76580	  1.97852	  0.22006	  2.40471	 -0.05178	 -0.11463	  3.17360	709.63000	 25.70	
 15.305	 51.417	  2.76364	  2.12513	  0.11797	  2.28542	  0.02431	 -0.10785	  3.17294	709.64001	 25.70	
 15.299	 45.015	  2.75971	  2.26407	  0.02192	  2.15264	  0.10923	 -0.10375	  3.17095	709.66998	 25.70	
 15.293	 38.572	  2.75816	  2.38397	 -0.05586	  2.00978	  0.20437	 -0.09964	  3.17278	709.73999	 25.70	
 15.288	 32.146	  2.75850	  2.49358	 -0.12167	  1.85453	  0.31756	 -0.09856	  3.17363	709.63000	 25.70	
 15.300	 25.739	  2.75427	  2.58300	 -0.17607	  1.69279	  0.43898	 -0.09622	  3.17195	709.76001	 25.60	
 15.307	 19.324	  2.75303	  2.65022	 -0.21630	  1.52720	  0.57099	 -0.09721	  3.17096	709.71997	 25.60	
 15.291	 12.833	  2.75642	  2.70083	 -0.24164	  1.35916	  0.72015	 -0.09801	  3.17192	709.67999	 25.60	
 15.298	  6.413	  2.75633	  2.72765	 -0.25665	  1.19597	  0.87205	 -0.09626	  3.17100	709.70001	 25.60	
 15.300	  0.000	  2.75701	  2.73635	 -0.26008	  1.03417	  1.02960	 -0.09617	  3.17009	709.59003	 25.60	
 15.298	 -6.413	  2.76013	  2.72438	 -0.24861	  0.87534	  1.20032	 -0.09785	  3.17060	709.63000	 25.60	
 15.291	-12.833	  2.76562	  2.69345	 -0.22787	  0.72785	  1.37065	 -0.10160	  3.17354	709.62000	 25.60	
 15.307	-19.324	  2.76941	  2.64033	 -0.19449	  0.58735	  1.53993	 -0.10304	  3.17246	709.53998	 25.60	
 15.300	-25.739	  2.77325	  2.56449	 -0.14724	  0.45561	  1.70631	 -0.10386	  3.17296	709.59003	 25.60	
 15.288	-32.146	  2.78054	  2.47203	 -0.08338	  0.33987	  1.86867	 -0.10462	  3.17455	709.59003	 25.60	
 15.293	-38.572	  2.78575	  2.36123	 -0.00929	  0.23827	  2.01420	 -0.10451	  3.17295	709.62000	 25.60	
 15.299	-45.015	  2.78902	  2.23251	  0.08139	  0.13972	  2.16094	 -0.10327	  3.17164	709.51001	 25.60	
 15.305	-51.417	  2.79721	  2.09516	  0.18086	  0.06246	  2.28565	 -0.10070	  3.17206	709.58002	 25.60	
 15.309	-57.858	  2.80198	  1.94422	  0.29576	 -0.00506	  2.39746	 -0.09788	  3.17107	709.70001	 25.60	
 15.304	-64.289	  2.80816	  1.78512	  0.42511	 -0.06050	  2.49384	 -0.09587	  3.17347	709.51001	 25.60	
 15.297	-70.709	  2.81508	  1.62433	  0.56153	 -0.09920	  2.56452	 -0.09440	  3.17322	709.58002	 25.60	
 15.293	-77.103	  2.82079	  1.45993	  0.71169	 -0.12438	  2.61680	 -0.09180	  3.17210	709.59998	 25.60	
 15.293	-83.542	  2.82757	  1.29435	  0.87222	 -0.13525	  2.64765	 -0.08960	  3.17238	709.56000	 25.60	
 15.300	-90.000	  2.83144	  1.13010	  1.03569	 -0.13756	  2.65514	 -0.08679	  3.17045	709.59998	 25.60	
 15.293	-96.458	  2.83892	  0.97382	  1.20544	 -0.12631	  2.64516	 -0.08978	  3.17268	709.48999	 25.60	
 15.293	-102.897	  2.84457	  0.82324	  1.37806	 -0.09798	  2.61013	 -0.08835	  3.17234	709.53003	 25.60	
 15.297	-109.291	  2.84896	  0.68044	  1.54522	 -0.06451	  2.55927	 -0.08818	  3.17255	709.44000	 25.60	
 15.304	-115.711	  2.85035	  0.54816	  1.70919	 -0.01612	  2.48397	 -0.09093	  3.17128	709.54999	 25.60	
 15.309	-122.142	  2.85457	  0.42121	  1.87291	  0.04607	  2.38852	 -0.09090	  3.17455	709.46002	 25.60	
 15.305	-128.583	  2.85763	  0.31111	  2.02224	  0.12440	  2.27497	 -0.09134	  3.17263	709.45001	 25.60	
 15.299	-134.985	  2.86190	  0.21555	  2.16243	  0.21722	  2.14542	 -0.09494	  3.17424	709.44000	 25.60	
 15.293	-141.428	  2.86300	  0.13139	  2.28324	  0.32252	  1.99976	 -0.09623	  3.17052	709.39001	 25.60	
 15.288	-147.854	  2.86480	  0.05794	  2.39258	  0.43679	  1.84729	 -0.10151	  3.17243	709.40997	 25.60	
 15.300	-154.261	  2.86646	  0.00040	  2.48219	  0.56523	  1.68799	 -0.10568	  3.17294	709.59003	 25.60	
 15.307	-160.676	  2.86663	 -0.04407	  2.55044	  0.70505	  1.51772	 -0.10750	  3.17352	709.47998	 25.60	
 15.291	-167.167	  2.86359	 -0.07423	  2.59352	  0.85163	  1.35152	 -0.11282	  3.17044	709.41998	 25.60	
 15.298	-173.587	  2.86325	 -0.09382	  2.62180	  1.00977	  1.17967	 -0.11652	  3.17040	709.40002	 25.60	
 15.300	180.000	  2.85984	 -0.09680	  2.62426	  1.17143	  1.01647	 -0.11841	  3.16989	709.46997	 25.60	
 17.000	180.000	  2.77053	 -0.26030	  2.72825	  1.10747	  0.94456	 -0.13033	  3.17093	709.50000	 25.60	
 16.990	-174.179	  2.77415	 -0.25684	  2.72716	  0.94467	  1.10851	 -0.12882	  3.17214	709.40997	 25.60	
 17.009	-168.383	  2.77210	 -0.24048	  2.70333	  0.78821	  1.27812	 -0.12715	  3.16993	709.44000	 25.60	
 17.000	-162.596	  2.77532	 -0.21187	  2.66253	  0.64734	  1.44272	 -0.11806	  3.17088	709.45001	 25.60	
 16.990	-156.759	  2.77746	 -0.17671	  2.60212	  0.50390	  1.61236	 -0.11598	  3.17288	709.35999	 25.60	
 16.995	-150.919	  2.77573	 -0.12572	  2.52012	  0.37474	  1.77707	 -0.11261	  3.17105	709.40002	 25.60	
 16.988	-145.161	  2.77601	 -0.06551	  2.42494	  0.25843	  1.93298	 -0.10724	  3.17191	709.40002	 25.60	
 17.014	-139.343	  2.77130	  0.00364	  2.31123	  0.14510	  2.08462	 -0.10019	  3.17238	709.51001	 25.60	
 17.007	-133.546	  2.76863	  0.09138	  2.18007	  0.05085	  2.22375	 -0.09746	  3.17011	709.44000	 25.60	
 17.001	-127.699	  2.76514	  0.18894	  2.03786	 -0.03449	  2.35081	 -0.09645	  3.17087	709.44000	 25.60	
 17.006	-121.937	  2.76220	  0.29336	  1.88988	 -0.10642	  2.46249	 -0.09220	  3.17291	709.44000	 25.60	
 17.002	-116.134	  2.75931	  0.41405	  1.72888	 -0.16574	  2.55769	 -0.09181	  3.17170	709.38000	 25.60	
 17.001	-110.310	  2.75401	  0.54204	  1.56202	 -0.21699	  2.63581	 -0.08911	  3.17102	709.44000	 25.60	
 16.988	-104.517	  2.75062	  0.67830	  1.39640	 -0.25469	  2.69706	 -0.08971	  3.17155	709.47998	 25.60	
 17.008	-98.662	  2.74381	  0.82574	  1.22378	 -0.28212	  2.73781	 -0.09390	  3.17136	709.38000	 25.60	
 16.996	-92.909	  2.74029	  0.97838	  1.05624	 -0.29825	  2.75905	 -0.09335	  3.17249	709.46997	 25.60	
 16.996	-87.091	  2.73364	  1.13463	  0.88973	 -0.30296	  2.75813	 -0.09397	  3.16953	709.46997	 25.60	
 17.012	-81.253	  2.72647	  1.29744	  0.72870	 -0.29945	  2.73911	 -0.09465	  3.16858	709.46002	 25.60	
 16.988	-75.483	  2.72292	  1.46565	  0.57541	 -0.27818	  2.70076	 -0.09407	  3.17163	709.32001	 25.60	
 17.001	-69.690	  2.71536	  1.62297	  0.43222	 -0.25258	  2.64309	 -0.09627	  3.16962	709.41998	 25.60	
 17.002	-63.866	  2.70828	  1.78863	  0.29542	 -0.21489	  2.56666	 -0.10144	  3.16857	709.41998	 25.60	
 17.006	-58.063	  2.70235	  1.94761	  0.16890	 -0.16509	  2.47395	 -0.10306	  3.17026	709.35999	 25.60	
 17.001	-52.301	  2.69352	  2.09486	  0.05965	 -0.10330	  2.36511	 -0.10775	  3.16938	709.41998	 25.60	
 17.007	-46.454	  2.68666	  2.23547	 -0.03964	 -0.02860	  2.23892	 -0.10944	  3.16727	709.39001	 25.60	
 17.014	-40.657	  2.68091	  2.36908	 -0.12958	  0.05836	  2.09976	 -0.11292	  3.16917	709.44000	 25.60	
 16.988	-34.839	  2.67691	  2.48604	 -0.20578	  0.15433	  1.95239	 -0.11696	  3.16997	709.22998	 25.60	
 16.995	-29.081	  2.67239	  2.58521	 -0.26558	  0.26051	  1.80253	 -0.11896	  3.17140	709.37000	 25.60	
 16.990	-23.241	  2.66689	  2.67094	 -0.32063	  0.37851	  1.63585	 -0.12158	  3.17011	709.28003	 25.60	
 17.000	-17.404	  2.66290	  2.73815	 -0.35884	  0.51310	  1.46697	 -0.12161	  3.16792	709.40002	 25.60	
 17.009	-11.617	  2.65809	  2.78832	 -0.39276	  0.64718	  1.29980	 -0.12113	  3.17055	709.46002	 25.60	
 16.990	 -5.821	  2.65801	  2.81832	 -0.40801	  0.79953	  1.13151	 -0.12272	  3.16992	709.48999	 25.60	
 17.000	  0.000	  2.65607	  2.83198	 -0.41586	  0.95518	  0.96581	 -0.12200	  3.17208	709.42999	 25.60	
 16.990	  5.821	  2.65285	  2.82120	 -0.41197	  1.11267	  0.80958	 -0.12503	  3.16883	709.34003	 25.60	
 17.009	 11.617	  2.64954	  2.79784	 -0.40460	  1.27616	  0.65426	 -0.12763	  3.16839	709.46002	 25.60	
 17.000	 17.404	  2.65248	  2.75297	 -0.37640	  1.44491	  0.51223	 -0.12889	  3.16910	709.45001	 25.60	
 16.990	 23.241	  2.65385	  2.69300	 -0.34556	  1.60985	  0.37788	 -0.13135	  3.17230	709.41998	 25.60	
 16.995	 29.081	  2.65379	  2.61107	 -0.30041	  1.77421	  0.25088	 -0.13427	  3.17118	709.42999	 25.60	
 16.988	 34.839	  2.65549	  2.51406	 -0.24396	  1.93312	  0.13911	 -0.13544	  3.17127	709.44000	 25.60	
 17.014	 40.657	  2.65621	  2.40208	 -0.17802	  2.08184	  0.03696	 -0.13962	  3.17147	709.57001	 25.60	
 17.007	 46.454	  2.65857	  2.27364	 -0.09714	  2.22258	 -0.05309	 -0.14238	  3.16911	709.48999	 25.60	
 17.001	 52.301	  2.65852	  2.13212	 -0.00780	  2.35289	 -0.13535	 -0.14538	  3.16800	709.57001	 25.60	
 17.006	 58.063	  2.66240	  1.98389	  0.09504	  2.47163	 -0.20397	 -0.15341	  3.16974	709.52002	 25.60	
 17.002	 63.866	  2.66465	  1.82520	  0.21186	  2.57112	 -0.25805	 -0.15570	  3.16813	709.46002	 25.60	
 17.001	 69.690	  2.66956	  1.66318	  0.34041	  2.65342	 -0.29956	 -0.15764	  3.16756	709.51001	 25.60	
 16.988	 75.483	  2.67593	  1.49955	  0.47309	  2.71986	 -0.33494	 -0.15723	  3.17004	709.48999	 25.60	
 17.012	 81.253	  2.68065	  1.33682	  0.61958	  2.76999	 -0.35744	 -0.15924	  3.17183	709.50000	 25.60	
 16.996	 87.091	  2.68462	  1.17107	  0.77372	  2.79607	 -0.36853	 -0.15875	  3.16822	709.33002	 25.60	
 16.996	 92.909	  2.69012	  1.01142	  0.93518	  2.80488	 -0.36790	 -0.15876	  3.16818	709.52002	 25.60	
 17.008	 98.662	  2.69573	  0.85480	  1.09876	  2.79500	 -0.36045	 -0.16139	  3.17000	709.42999	 25.60	
 16.988	104.517	  2.70470	  0.70544	  1.27059	  2.76538	 -0.33946	 -0.16318	  3.17175	709.46997	 25.60	
 17.001	110.310	  2.70719	  0.56595	  1.43550	  2.71854	 -0.31258	 -0.16377	  3.17088	709.38000	 25.60	
 17.002	116.134	  2.71262	  0.43478	  1.60520	  2.65087	 -0.26681	 -0.16236	  3.16950	709.41998	 25.60	
 17.006	121.937	  2.71819	  0.31097	  1.76798	  2.56660	 -0.21908	 -0.16299	  3.17020	709.34998	 25.60	
 17.001	127.699	  2.72335	  0.20454	  1.92412	  2.46406	 -0.15006	 -0.16113	  3.16716	709.46997	 25.60	
 17.007	133.546	  2.73227	  0.10518	  2.07716	  2.34797	 -0.07189	 -0.16423	  3.17140	709.52002	 25.60	
 17.014	139.343	  2.73678	  0.01685	  2.21591	  2.21591	  0.01744	 -0.16243	  3.17063	709.46002	 25.60	
 16.988	145.161	  2.74418	 -0.05187	  2.33721	  2.07806	  0.12085	 -0.16215	  3.17085	709.47998	 25.60	
 16.995	150.919	  2.74804	 -0.11830	  2.44742	  1.92649	  0.23012	 -0.16010	  3.17021	709.53998	 25.60	
 16.990	156.759	  2.75249	 -0.16817	  2.54197	  1.76557	  0.35740	 -0.15584	  3.16912	709.46997	 25.60	
 17.000	162.596	  2.75726	 -0.21008	  2.61754	  1.60310	  0.48940	 -0.14897	  3.16923	709.42999	 25.60	
 17.009	168.383	  2.76207	 -0.23635	  2.67322	  1.43698	  0.63411	 -0.14473	  3.16835	709.47998	 25.60	
 16.990	174.179	  2.76776	 -0.25551	  2.71264	  1.27039	  0.78561	 -0.13580	  3.17078	709.37000	 25.60	
 18.709	174.675	  2.66523	 -0.41780	  2.80713	  1.19736	  0.71302	 -0.15194	  3.16992	709.50000	 25.60	
 18.703	169.441	  2.66197	 -0.40412	  2.77433	  1.36023	  0.56313	 -0.15688	  3.17041	709.53998	 25.60	
 18.691	164.085	  2.65914	 -0.37568	  2.72015	  1.52835	  0.42157	 -0.16469	  3.17091	709.54999	 25.60	
 18.706	158.818	  2.65330	 -0.34457	  2.65273	  1.68867	  0.28793	 -0.17190	  3.17060	709.53998	 25.60	
 18.695	153.537	  2.64772	 -0.30199	  2.56519	  1.84863	  0.16188	 -0.17642	  3.16838	709.48999	 25.60	
 18.704	148.255	  2.64300	 -0.24494	  2.46363	  2.00484	  0.04927	 -0.18256	  3.17031	709.46002	 25.60	
 18.698	142.952	  2.64168	 -0.17709	  2.34973	  2.15291	 -0.05471	 -0.18550	  3.17171	709.47998	 25.60	
 18.699	137.625	  2.63518	 -0.10645	  2.21898	  2.29313	 -0.15289	 -0.19266	  3.17279	709.60999	 25.60	
 18.705	132.343	  2.62500	 -0.01876	  2.07440	  2.41878	 -0.23672	 -0.19302	  3.16761	709.52002	 25.60	
 18.713	127.067	  2.61716	  0.07657	  1.92372	  2.53224	 -0.30944	 -0.19809	  3.16807	709.53998	 25.60	
 18.700	121.794	  2.61458	  0.18512	  1.76937	  2.63292	 -0.36668	 -0.19783	  3.17018	709.56000	 25.60	
 18.698	116.504	  2.61054	  0.29936	  1.60866	  2.71752	 -0.41773	 -0.19731	  3.17125	709.51001	 25.60	
 18.707	111.165	  2.60263	  0.42500	  1.43751	  2.78703	 -0.46180	 -0.19764	  3.17030	709.50000	 25.60	
 18.690	105.863	  2.59555	  0.56298	  1.26619	  2.83819	 -0.49491	 -0.19979	  3.16913	709.59003	 25.60	
 18.696	100.583	  2.59052	  0.70529	  1.10244	  2.87329	 -0.51617	 -0.20152	  3.17054	709.59003	 25.60	
 18.700	 95.309	  2.58606	  0.85673	  0.93808	  2.89059	 -0.52818	 -0.20332	  3.17010	709.46997	 25.60	
 18.700	 90.000	  2.58221	  1.01103	  0.78153	  2.89099	 -0.52986	 -0.20101	  3.17055	709.56000	 25.60	
 18.700	 84.691	  2.57537	  1.17109	  0.62425	  2.87438	 -0.52600	 -0.19820	  3.17064	709.57001	 25.60	
 18.696	 79.417	  2.57008	  1.33434	  0.47704	  2.83725	 -0.50999	 -0.19735	  3.16918	709.62000	 25.50	
 18.690	 74.137	  2.56525	  1.49829	  0.33785	  2.78403	 -0.48470	 -0.19857	  3.16718	709.65997	 25.60	
 18.707	 68.835	  2.56184	  1.66401	  0.20800	  2.71773	 -0.45108	 -0.19642	  3.16936	709.58002	 25.50	
 18.698	 63.496	  2.55702	  1.82752	  0.08272	  2.62966	 -0.41015	 -0.19413	  3.17017	709.57001	 25.50	
 18.700	 58.206	  2.55444	  1.98484	 -0.02581	  2.52841	 -0.35296	 -0.18990	  3.16975	709.62000	 25.60	
 18.713	 52.933	  2.54887	  2.13041	 -0.12986	  2.41675	 -0.29793	 -0.18740	  3.16964	709.58002	 25.60	
 18.705	 47.657	  2.54777	  2.27447	 -0.21719	  2.28762	 -0.21921	 -0.18092	  3.17016	709.64001	 25.50	
 18.699	 42.375	  2.54411	  2.40227	 -0.29653	  2.14685	 -0.13461	 -0.17835	  3.16796	709.53998	 25.60	
 18.698	 37.048	  2.54490	  2.52475	 -0.36589	  1.99863	 -0.03856	 -0.17653	  3.17142	709.60999	 25.60	
 18.704	 31.745	  2.54322	  2.62838	 -0.42553	  1.84587	  0.06429	 -0.17140	  3.17219	709.59998	 25.50	
 18.695	 26.463	  2.54217	  2.71625	 -0.47336	  1.68519	  0.18021	 -0.16662	  3.17200	709.50000	 25.50	
 18.706	 21.182	  2.54073	  2.79133	 -0.51282	  1.52149	  0.30677	 -0.16163	  3.17173	709.65997	 25.50	
 18.691	 15.915	  2.54083	  2.84800	 -0.54253	  1.35773	  0.43799	 -0.15919	  3.17076	709.64001	 25.50	
 18.703	 10.559	  2.54109	  2.89056	 -0.56317	  1.18996	  0.58352	 -0.15358	  3.17207	709.65997	 25.50	
 18.709	  5.325	  2.54221	  2.91294	 -0.57348	  1.02781	  0.73593	 -0.14917	  3.17295	709.66998	 25.50	
 18.700	  0.000	  2.54368	  2.91710	 -0.57418	  0.86995	  0.89239	 -0.14756	  3.17089	709.54999	 25.50	
 18.709	 -5.325	  2.54249	  2.90575	 -0.57100	  0.71449	  1.05172	 -0.14042	  3.16977	709.59003	 25.50	
 18.703	-10.559	  2.54516	  2.87622	 -0.55152	  0.57014	  1.21856	 -0.14108	  3.16863	709.67999	 25.50	
 18.691	-15.915	  2.55094	  2.83393	 -0.52571	  0.43168	  1.38542	 -0.13820	  3.17089	709.63000	 25.50	
 18.706	-21.182	  2.55423	  2.77175	 -0.48971	  0.30100	  1.55519	 -0.12938	  3.17015	709.58002	 25.50	
 18.695	-26.463	  2.55971	  2.69114	 -0.44203	  0.18296	  1.71890	 -0.12711	  3.16913	709.59003	 25.50	
 18.704	-31.745	  2.56733	  2.59796	 -0.38447	  0.07804	  1.87569	 -0.12467	  3.17001	709.60999	 25.50	
 18.698	-37.048	  2.57371	  2.48894	 -0.31682	 -0.02314	  2.03249	 -0.12030	  3.17161	709.63000	 25.50	
 18.699	-42.375	  2.57749	  2.36630	 -0.23981	 -0.11611	  2.17883	 -0.11847	  3.16947	709.62000	 25.50	
 18.705	-47.657	  2.58295	  2.23303	 -0.15322	 -0.19368	  2.31247	 -0.11316	  3.16989	709.64001	 25.50	
 18.713	-52.933	  2.59088	  2.08888	 -0.05385	 -0.26149	  2.43552	 -0.11206	  3.16948	709.51001	 25.50	
 18.700	-58.206	  2.59969	  1.94083	  0.05723	 -0.31780	  2.54384	 -0.10754	  3.17125	709.65002	 25.50	
 18.698	-63.496	  2.60329	  1.78279	  0.17507	 -0.36795	  2.63765	 -0.10409	  3.16991	709.59998	 25.50	
 18.707	-68.835	  2.60830	  1.61895	  0.30609	 -0.40603	  2.71572	 -0.10176	  3.16825	709.57001	 25.50	
 18.690	-74.137	  2.61569	  1.45712	  0.44623	 -0.43298	  2.77641	 -0.09854	  3.16958	709.47998	 25.50	
 18.696	-79.417	  2.62465	  1.29553	  0.59373	 -0.44966	  2.81965	 -0.09380	  3.17164	709.54999	 25.50	
 18.700	-84.691	  2.62858	  1.13211	  0.74595	 -0.46371	  2.84528	 -0.09504	  3.17219	709.57001	 25.50	
 18.700	-90.000	  2.63371	  0.97554	  0.90647	 -0.46320	  2.85372	 -0.09645	  3.17286	709.65997	 25.50	
 18.700	-95.309	  2.63739	  0.81901	  1.07164	 -0.45636	  2.84298	 -0.09536	  3.17138	709.62000	 25.50	
 18.696	-100.583	  2.64250	  0.67214	  1.23781	 -0.43474	  2.81354	 -0.09413	  3.17035	709.59998	 25.50	
 18.690	-105.863	  2.64886	  0.53528	  1.40548	 -0.40576	  2.76880	 -0.08993	  3.17084	709.60999	 25.50	
 18.707	-111.165	  2.65220	  0.40117	  1.57303	 -0.36785	  2.70531	 -0.09011	  3.16946	709.66998	 25.50	
 18.698	-116.504	  2.65767	  0.27669	  1.74268	 -0.31825	  2.62579	 -0.09329	  3.17230	709.63000	 25.50	
 18.700	-121.794	  2.66131	  0.16377	  1.90031	 -0.25947	  2.52745	 -0.09675	  3.16988	709.65997	 25.50	
 18.713	-127.067	  2.66451	  0.05715	  2.05248	 -0.19195	  2.41620	 -0.09671	  3.16993	709.72998	 25.50	
 18.705	-132.343	  2.66413	 -0.03676	  2.19289	 -0.11300	  2.28875	 -0.10020	  3.16768	709.64001	 25.50	
 18.699	-137.625	  2.67152	 -0.12162	  2.32757	 -0.02566	  2.15709	 -0.10341	  3.17249	709.60999	 25.50	
 18.698	-142.952	  2.67083	 -0.19506	  2.44589	  0.07712	  2.00574	 -0.10589	  3.17072	709.57001	 25.50	
 18.704	-148.255	  2.67349	 -0.25597	  2.55115	  0.18860	  1.85285	 -0.11004	  3.17057	709.56000	 25.50	
 18.695	-153.537	  2.67579	 -0.31096	  2.64140	  0.30833	  1.69221	 -0.11194	  3.17291	709.58002	 25.50	
 18.706	-158.818	  2.67700	 -0.35010	  2.71353	  0.44178	  1.52735	 -0.11905	  3.17102	709.60999	 25.50	
 18.691	-164.085	  2.67745	 -0.38181	  2.76734	  0.58025	  1.36170	 -0.12626	  3.17142	709.62000	 25.50	
 18.703	-169.441	  2.67515	 -0.40669	  2.80584	  0.72411	  1.19316	 -0.13493	  3.17130	709.69000	 25.50	
 18.709	-174.675	  2.67243	 -0.42297	  2.82526	  0.87492	  1.02711	 -0.14097	  3.17171	709.72998	 25.50	
 18.700	180.000	  2.66977	 -0.42537	  2.82534	  1.03659	  0.86536	 -0.14940	  3.17109	709.67999	 25.50	
 20.400	180.000	  2.55672	 -0.60167	  2.90938	  0.95174	  0.77483	 -0.15175	  3.17113	709.66998	 25.50	
 20.401	-175.153	  2.55631	 -0.60044	  2.90881	  0.79156	  0.93505	 -0.13969	  3.16946	709.78998	 25.50	
 20.407	-170.264	  2.56097	 -0.59034	  2.89513	  0.63913	  1.09975	 -0.13225	  3.17266	709.84003	 25.50	
 20.410	-165.423	  2.55989	 -0.56665	  2.85745	  0.49729	  1.26068	 -0.12417	  3.17010	709.72998	 25.50	
 20.392	-160.496	  2.56178	 -0.53892	  2.80900	  0.35574	  1.43458	 -0.12105	  3.17127	709.78003	 25.50	
 20.401	-155.705	  2.56167	 -0.50101	  2.74361	  0.22819	  1.59721	 -0.11926	  3.17094	709.73999	 25.50	
 20.405	-150.835	  2.56281	 -0.45360	  2.66318	  0.10920	  1.75943	 -0.11225	  3.17235	709.67999	 25.50	
 20.397	-145.903	  2.55940	 -0.39889	  2.56368	 -0.00738	  1.92000	 -0.10943	  3.17140	709.71002	 25.50	
 20.392	-141.062	  2.55941	 -0.33392	  2.45524	 -0.10972	  2.07284	 -0.10723	  3.17326	709.81000	 25.50	
 20.396	-136.227	  2.55583	 -0.26012	  2.32843	 -0.20281	  2.21359	 -0.10243	  3.16912	709.75000	 25.50	
 20.408	-131.372	  2.55324	 -0.17755	  2.19684	 -0.28732	  2.34759	 -0.09952	  3.17166	709.82001	 25.50	
 20.410	-126.511	  2.54840	 -0.08447	  2.05039	 -0.36334	  2.47208	 -0.09761	  3.16919	709.67999	 25.50	
 20.400	-121.604	  2.54662	  0.01621	  1.89514	 -0.43109	  2.58532	 -0.09617	  3.17170	709.65997	 25.50	
 20.403	-116.741	  2.54010	  0.12739	  1.73709	 -0.48583	  2.68148	 -0.09414	  3.17040	709.72998	 25.50	
 20.413	-111.900	  2.53761	  0.24633	  1.57377	 -0.53640	  2.76499	 -0.08840	  3.17242	709.70001	 25.50	
 20.398	-107.004	  2.53602	  0.37987	  1.40385	 -0.56833	  2.82889	 -0.08966	  3.17000	709.64001	 25.50	
 20.394	-102.132	  2.52786	  0.51414	  1.23633	 -0.59908	  2.87686	 -0.09021	  3.16826	709.64001	 25.50	
 20.403	-97.332	  2.52635	  0.65482	  1.07186	 -0.62021	  2.91422	 -0.09594	  3.17184	709.67999	 25.50	
 20.392	-92.440	  2.52172	  0.80698	  0.90587	 -0.63128	  2.92917	 -0.09437	  3.17111	709.65997	 25.50	
 20.392	-87.560	  2.51530	  0.96266	  0.74490	 -0.63470	  2.93021	 -0.09781	  3.17125	709.65997	 25.50	
 20.403	-82.668	  2.51056	  1.11980	  0.58793	 -0.63378	  2.91666	 -0.09661	  3.17245	709.59003	 25.50	
 20.394	-77.868	  2.50338	  1.28072	  0.43919	 -0.61973	  2.88355	 -0.10102	  3.17043	709.73999	 25.50	
 20.398	-72.996	  2.49878	  1.44295	  0.29783	 -0.60047	  2.83927	 -0.10054	  3.17196	709.70001	 25.50	
 20.413	-68.100	  2.49039	  1.60487	  0.15835	 -0.57714	  2.77867	 -0.10243	  3.17329	709.69000	 25.50	
 20.403	-63.259	  2.48092	  1.76475	  0.03172	 -0.54188	  2.69860	 -0.10362	  3.17067	709.71002	 25.50	
 20.400	-58.396	  2.47726	  1.92289	 -0.08252	 -0.49426	  2.60405	 -0.10208	  3.17132	709.70001	 25.50	
 20.410	-53.489	  2.47038	  2.07592	 -0.18984	 -0.43895	  2.49522	 -0.10804	  3.17220	709.75000	 25.50	
 20.408	-48.628	  2.46313	  2.21940	 -0.28709	 -0.37490	  2.37424	 -0.11248	  3.17045	709.66998	 25.50	
 20.396	-43.773	  2.45826	  2.35732	 -0.37345	 -0.29821	  2.24216	 -0.11488	  3.17278	709.78003	 25.50	
 20.392	-38.938	  2.45008	  2.47922	 -0.45069	 -0.21944	  2.10125	 -0.11788	  3.16983	709.63000	 25.50	
 20.397	-34.097	  2.44420	  2.59404	 -0.51861	 -0.12739	  1.94991	 -0.11962	  3.17106	709.73999	 25.50	
 20.405	-29.165	  2.43754	  2.69683	 -0.58020	 -0.02230	  1.78952	 -0.12841	  3.17045	709.67999	 25.50	
 20.401	-24.295	  2.43290	  2.78436	 -0.62780	  0.08681	  1.62956	 -0.13088	  3.17012	709.63000	 25.50	
 20.392	-19.504	  2.42861	  2.85438	 -0.66712	  0.20681	  1.46500	 -0.13509	  3.16980	709.78998	 25.50	
 20.410	-14.577	  2.42334	  2.91304	 -0.70074	  0.33845	  1.29412	 -0.14003	  3.16917	709.71997	 25.50	
 20.407	 -9.736	  2.42065	  2.95411	 -0.72438	  0.47419	  1.13054	 -0.14445	  3.16967	709.71002	 25.50	
 20.401	 -4.847	  2.41962	  2.98170	 -0.74094	  0.62226	  0.96387	 -0.15516	  3.17204	709.72998	 25.50	
 20.400	  0.000	  2.41672	  2.98998	 -0.74546	  0.77234	  0.80233	 -0.15959	  3.17033	709.81000	 25.50	
 20.401	  4.847	  2.41634	  2.98516	 -0.74602	  0.92563	  0.64949	 -0.16480	  3.17221	709.70001	 25.50	
 20.407	  9.736	  2.41522	  2.96652	 -0.73642	  1.08984	  0.49901	 -0.17027	  3.17210	709.76001	 25.50	
 20.410	 14.577	  2.41523	  2.93154	 -0.71949	  1.25141	  0.35549	 -0.17631	  3.17285	709.73999	 25.50	
 20.392	 19.504	  2.41745	  2.87925	 -0.69200	  1.41837	  0.22169	 -0.18263	  3.17338	709.69000	 25.50	
 20.401	 24.295	  2.41572	  2.81118	 -0.65785	  1.58069	  0.09608	 -0.19043	  3.17089	709.75000	 25.50	
 20.405	 29.165	  2.41605	  2.72834	 -0.61700	  1.74276	 -0.02256	 -0.19483	  3.17229	709.79999	 25.50	
 20.397	 34.097	  2.42000	  2.62981	 -0.56397	  1.90304	 -0.12826	 -0.20001	  3.17025	709.72998	 25.50	
 20.392	 38.938	  2.41991	  2.52102	 -0.50423	  2.05706	 -0.22722	 -0.20305	  3.17070	709.67999	 25.50	
 20.396	 43.773	  2.42435	  2.40044	 -0.43536	  2.20520	 -0.31574	 -0.20988	  3.17497	709.69000	 25.50	
 20.408	 48.628	  2.42455	  2.26640	 -0.35901	  2.33875	 -0.39663	 -0.21526	  3.17270	709.70001	 25.50	
 20.410	 53.489	  2.42507	  2.12140	 -0.27134	  2.46273	 -0.46722	 -0.22011	  3.17030	709.78003	 25.50	
 20.400	 58.396	  2.43067	  1.97230	 -0.16978	  2.58074	 -0.52534	 -0.22367	  3.17123	709.73999	 25.50	
 20.403	 63.259	  2.43281	  1.81407	 -0.06341	  2.68182	 -0.57843	 -0.22737	  3.17091	709.83002	 25.50	
 20.413	 68.100	  2.43564	  1.65320	  0.05178	  2.77046	 -0.62203	 -0.22652	  3.17238	709.75000	 25.50	
 20.398	 72.996	  2.44007	  1.48526	  0.18134	  2.84161	 -0.65615	 -0.22908	  3.16948	709.70001	 25.50	
 20.394	 77.868	  2.44619	  1.32537	  0.31528	  2.89852	 -0.67964	 -0.23169	  3.17366	709.59003	 25.50	
 20.403	 82.668	  2.45182	  1.16400	  0.45748	  2.93888	 -0.69529	 -0.22986	  3.17439	709.63000	 25.50	
 20.392	 87.560	  2.45771	  1.00098	  0.60941	  2.96502	 -0.70629	 -0.23279	  3.17420	709.73999	 25.50	
 20.392	 92.440	  2.46097	  0.84446	  0.76659	  2.96978	 -0.70084	 -0.23030	  3.17145	709.59998	 25.50	
 20.403	 97.332	  2.46679	  0.68834	  0.92769	  2.96724	 -0.70088	 -0.23229	  3.17493	709.67999	 25.50	
 20.394	102.132	  2.47074	  0.54383	  1.08889	  2.94097	 -0.68411	 -0.22929	  3.17124	709.60999	 25.50	
 20.398	107.004	  2.47922	  0.40757	  1.25716	  2.90409	 -0.65824	 -0.22669	  3.17308	709.63000	 25.50	
 20.413	111.900	  2.48201	  0.27274	  1.42606	  2.84684	 -0.62651	 -0.22948	  3.16931	709.65002	 25.50	
 20.403	116.741	  2.48814	  0.15043	  1.59137	  2.77566	 -0.58576	 -0.22479	  3.17180	709.59998	 25.50	
 20.400	121.604	  2.49528	  0.03812	  1.75526	  2.69029	 -0.53474	 -0.22216	  3.16950	709.59998	 25.50	
 20.410	126.511	  2.50168	 -0.06834	  1.91464	  2.59137	 -0.47797	 -0.22070	  3.17218	709.66998	 25.50	
 20.408	131.372	  2.50816	 -0.16293	  2.06786	  2.47839	 -0.40974	 -0.21645	  3.17048	709.71997	 25.50	
 20.396	136.227	  2.51599	 -0.24660	  2.21109	  2.35617	 -0.33123	 -0.21195	  3.17329	709.65997	 25.50	
 20.392	141.062	  2.52074	 -0.32040	  2.34298	  2.21891	 -0.24239	 -0.20655	  3.17320	709.67999	 25.50	
 20.397	145.903	  2.52726	 -0.38866	  2.46579	  2.07542	 -0.14891	 -0.19895	  3.17230	709.63000	 25.50	
 20.405	150.835	  2.52973	 -0.44783	  2.57581	  1.92132	 -0.04289	 -0.19030	  3.17174	709.66998	 25.50	
 20.401	155.705	  2.53480	 -0.49686	  2.67209	  1.76303	  0.07281	 -0.18574	  3.17170	709.63000	 25.50	
 20.392	160.496	  2.54157	 -0.53262	  2.75193	  1.60295	  0.19838	 -0.17892	  3.17297	709.62000	 25.50	
 20.410	165.423	  2.54381	 -0.56579	  2.81596	  1.43697	  0.33053	 -0.17045	  3.17081	709.65997	 25.50	
 20.407	170.264	  2.54875	 -0.58411	  2.86231	  1.27406	  0.47484	 -0.16420	  3.17050	709.65997	 25.50	
 20.401	175.153	  2.55228	 -0.59880	  2.89556	  1.10767	  0.62280	 -0.15317	  3.17194	709.57001	 25.50	
  0.141	 45.000	  3.18072	  1.51294	  1.33206	  1.47746	  1.37224	  0.07409	  3.17232	709.65997	 25.50	
  4.001	128.691	  3.17110	  1.24379	  1.52527	  1.73052	  1.06579	  0.05066	  3.17186	709.69000	 25.50	
  4.002	 76.995	  3.16650	  1.55188	  1.19820	  1.79636	  1.00091	  0.06454	  3.17270	709.69000	 25.50	
  4.002	 25.892	  3.16472	  1.81400	  0.97403	  1.56832	  1.18192	  0.06830	  3.17408	709.65002	 25.50	
  4.002	-25.892	  3.16481	  1.80838	  0.98387	  1.25108	  1.50364	  0.05584	  3.17109	709.70001	 25.40	
  4.002	-76.995	  3.16937	  1.54116	  1.22622	  1.08325	  1.71984	  0.04119	  3.17115	709.64001	 25.50	
  4.001	-128.691	  3.17581	  1.24283	  1.54937	  1.16168	  1.63861	  0.03521	  3.17290	709.65997	 25.50	
  4.000	180.000	  3.17392	  1.12050	  1.68950	  1.43970	  1.33627	  0.03933	  3.17121	709.82001	 25.50	
  8.000	180.000	  3.12358	  0.67868	  2.06217	  1.38203	  1.25361	 -0.01617	  3.17036	709.65997	 25.40	
  7.991	-152.370	  3.12701	  0.74912	  1.97646	  1.02732	  1.63231	 -0.02069	  3.17191	709.83002	 25.50	
  7.997	-124.550	  3.12365	  0.96605	  1.70937	  0.76987	  1.94019	 -0.02472	  3.17328	709.73999	 25.40	
  8.006	-96.837	  3.11463	  1.28885	  1.34195	  0.64395	  2.09513	 -0.02283	  3.17069	709.67999	 25.50	
  7.988	-69.228	  3.10513	  1.65869	  0.97559	  0.66819	  2.04522	 -0.01599	  3.17294	709.67999	 25.40	
  7.997	-41.563	  3.09301	  1.98664	  0.68814	  0.83801	  1.80965	 -0.00287	  3.17169	709.65002	 25.40	
  8.008	-13.821	  3.08429	  2.18420	  0.53003	  1.13085	  1.45766	  0.01384	  3.17269	709.72998	 25.40	
  8.008	 13.821	  3.08054	  2.18935	  0.52296	  1.49619	  1.08906	  0.02677	  3.17336	709.83002	 25.40	
  7.997	 41.563	  3.08001	  1.99684	  0.66147	  1.85131	  0.78348	  0.03150	  3.17082	709.79999	 25.40	
  7.988	 69.228	  3.08714	  1.67384	  0.92729	  2.09928	  0.59999	  0.02447	  3.17131	709.72998	 25.40	
  8.006	 96.837	  3.09588	  1.30324	  1.28415	  2.17214	  0.55558	  0.01448	  3.17209	709.82001	 25.50	
  7.997	124.550	  3.10401	  0.97497	  1.65589	  2.03840	  0.66506	  0.00526	  3.16870	709.71002	 25.40	
  7.991	152.370	  3.11682	  0.75758	  1.94342	  1.74922	  0.90959	 -0.00983	  3.17016	709.77002	 25.40	
 12.009	161.059	  2.99591	  0.29213	  2.30398	  1.66906	  0.77603	 -0.07871	  3.17062	709.77002	 25.40	
 12.013	142.081	  2.98599	  0.44202	  2.07514	  2.02695	  0.47684	 -0.07216	  3.17210	709.81000	 25.40	
 12.006	123.113	  2.97375	  0.68274	  1.74356	  2.30632	  0.26122	 -0.06424	  3.17189	709.73999	 25.40	
 12.007	104.200	  2.96064	  1.00380	  1.35643	  2.46135	  0.14480	 -0.05873	  3.17168	709.69000	 25.40	
 11.989	 85.301	  2.95189	  1.37956	  0.96908	  2.47772	  0.12861	 -0.04879	  3.17477	709.59998	 25.40	
 12.013	 66.294	  2.93941	  1.76700	  0.61874	  2.35043	  0.20128	 -0.04649	  3.17260	709.64001	 25.40	
 12.012	 47.388	  2.93184	  2.11315	  0.34848	  2.09729	  0.37041	 -0.03558	  3.17370	709.72998	 25.40	
 11.990	 28.440	  2.92913	  2.37105	  0.17199	  1.75193	  0.63263	 -0.03084	  3.17207	709.67999	 25.40	
 11.991	  9.464	  2.92835	  2.50429	  0.08842	  1.36589	  0.96701	 -0.03605	  3.16923	709.78003	 25.40	
 11.991	 -9.464	  2.93237	  2.50062	  0.09394	  0.99210	  1.34897	 -0.04774	  3.16927	709.72998	 25.40	
 11.990	-28.440	  2.94354	  2.35768	  0.19790	  0.66632	  1.73669	 -0.06266	  3.17210	709.65997	 25.40	
 12.012	-47.388	  2.95815	  2.09344	  0.39864	  0.41533	  2.08216	 -0.06968	  3.17526	709.78003	 25.40	
 12.013	-66.294	  2.96927	  1.74127	  0.68873	  0.26108	  2.31631	 -0.07372	  3.17239	709.65997	 25.40	
 11.989	-85.301	  2.98337	  1.35615	  1.05375	  0.20552	  2.42072	 -0.07413	  3.17120	709.65997	 25.40	
 12.007	-104.200	  2.99086	  0.98609	  1.44486	  0.24065	  2.38059	 -0.07598	  3.16903	709.64001	 25.40	
 12.006	-123.113	  3.00187	  0.66999	  1.82505	  0.37214	  2.20284	 -0.07772	  3.17310	709.75000	 25.40	
 12.013	-142.081	  3.00684	  0.43188	  2.13795	  0.60013	  1.90369	 -0.07569	  3.17147	709.66998	 25.40	
 12.009	-161.059	  3.00952	  0.28923	  2.33751	  0.91245	  1.53242	 -0.08146	  3.17263	709.72998	 25.40	
 16.000	180.000	  2.82416	 -0.16790	  2.67002	  1.14497	  0.98408	 -0.12499	  3.17180	709.70001	 25.40	
 15.990	-165.604	  2.82983	 -0.13685	  2.63227	  0.77598	  1.37699	 -0.11957	  3.17196	709.72998	 25.40	
 16.002	-151.165	  2.82865	 -0.03891	  2.47821	  0.44984	  1.76632	 -0.10771	  3.17335	709.65002	 25.40	
 16.002	-136.836	  2.82421	  0.12559	  2.22458	  0.18435	  2.11941	 -0.09884	  3.17080	709.77002	 25.40	
 15.995	-122.439	  2.81588	  0.35853	  1.89241	 -0.01382	  2.40980	 -0.09303	  3.17023	709.69000	 25.40	
 15.993	-107.966	  2.81066	  0.65992	  1.50833	 -0.14111	  2.60887	 -0.08982	  3.17268	709.73999	 25.40	
 16.005	-93.629	  2.79715	  1.00560	  1.11043	 -0.20211	  2.69441	 -0.09032	  3.17110	709.56000	 25.40	
 15.992	-79.234	  2.78610	  1.38465	  0.73057	 -0.19870	  2.67308	 -0.09274	  3.17365	709.64001	 25.40	
 16.009	-64.774	  2.76865	  1.76839	  0.38777	 -0.13047	  2.53202	 -0.09940	  3.16908	709.66998	 25.40	
 15.997	-50.364	  2.75519	  2.12752	  0.11004	  0.00894	  2.29198	 -0.10287	  3.17183	709.64001	 25.40	
 15.997	-36.045	  2.73919	  2.42671	 -0.10055	  0.21206	  1.97058	 -0.10884	  3.16969	709.71997	 25.40	
 16.000	-21.597	  2.72772	  2.64682	 -0.24296	  0.48679	  1.59338	 -0.10922	  3.16977	709.71997	 25.40	
 16.003	 -7.169	  2.72016	  2.76113	 -0.31218	  0.81867	  1.20000	 -0.10999	  3.16987	709.76001	 25.40	
 16.003	  7.169	  2.71532	  2.76785	 -0.32070	  1.18680	  0.82222	 -0.10866	  3.17191	709.65997	 25.40	
 16.000	 21.597	  2.71330	  2.66233	 -0.26564	  1.57626	  0.47797	 -0.10763	  3.16923	709.71002	 25.40	
 15.997	 36.045	  2.71771	  2.45615	 -0.14277	  1.95638	  0.19228	 -0.11150	  3.17026	709.70001	 25.40	
 15.997	 50.364	  2.72426	  2.16478	  0.04322	  2.28619	 -0.02562	 -0.12135	  3.17256	709.71997	 25.40	
 16.009	 64.774	  2.73092	  1.80750	  0.30374	  2.54588	 -0.17798	 -0.13358	  3.17250	709.78998	 25.40	
 15.992	 79.234	  2.73894	  1.41940	  0.62598	  2.69988	 -0.26007	 -0.13513	  3.17003	709.73999	 25.40	
 16.005	 93.629	  2.75082	  1.03396	  0.99553	  2.75053	 -0.28057	 -0.13758	  3.17018	709.78003	 25.40	
 15.993	107.966	  2.76345	  0.68107	  1.38707	  2.69009	 -0.23923	 -0.14413	  3.17216	709.77002	 25.40	
 15.995	122.439	  2.77882	  0.37593	  1.78304	  2.51801	 -0.12657	 -0.14191	  3.17214	709.76001	 25.40	
 16.002	136.836	  2.79275	  0.13983	  2.13297	  2.24952	  0.05915	 -0.14496	  3.17107	709.69000	 25.40	
 16.002	151.165	  2.80454	 -0.03258	  2.41219	  1.91277	  0.30810	 -0.14426	  3.17123	709.78998	 25.40	
 15.990	165.604	  2.81740	 -0.13373	  2.59795	  1.53325	  0.62300	 -0.13413	  3.17323	709.77002	 25.40	
 20.003	168.362	  2.57561	 -0.53703	  2.83105	  1.35236	  0.44459	 -0.16423	  3.17415	709.81000	 25.40	
 20.008	156.764	  2.56422	 -0.46359	  2.67595	  1.73311	  0.13418	 -0.18200	  3.17077	709.77002	 25.40	
 20.000	145.147	  2.55448	 -0.33741	  2.43698	  2.09699	 -0.12711	 -0.19465	  3.17131	709.76001	 25.40	
 19.995	133.545	  2.53875	 -0.16388	  2.12731	  2.41650	 -0.33772	 -0.20850	  3.17223	709.71002	 25.40	
 20.009	121.926	  2.52778	  0.06660	  1.76994	  2.67543	 -0.49024	 -0.21805	  3.17342	709.65997	 25.40	
 20.005	110.327	  2.51066	  0.34706	  1.38328	  2.85052	 -0.59426	 -0.22117	  3.17145	709.76001	 25.40	
 19.989	 98.733	  2.49967	  0.67480	  0.99440	  2.94235	 -0.64991	 -0.22753	  3.17216	709.72998	 25.40	
 19.999	 87.075	  2.48742	  1.03714	  0.61658	  2.94567	 -0.66275	 -0.22702	  3.17370	709.64001	 25.40	
 19.992	 75.457	  2.47333	  1.41946	  0.27730	  2.85589	 -0.62520	 -0.22477	  3.17021	709.66998	 25.40	
 20.009	 63.844	  2.46592	  1.80307	 -0.01473	  2.68046	 -0.53858	 -0.21958	  3.17159	709.78003	 25.40	
 19.989	 52.269	  2.46138	  2.15873	 -0.25064	  2.42811	 -0.40441	 -0.21312	  3.17159	709.65997	 25.40	
 19.999	 40.602	  2.44939	  2.47215	 -0.44569	  2.10560	 -0.22455	 -0.20275	  3.17320	709.64001	 25.40	
 20.004	 29.051	  2.44897	  2.71989	 -0.57872	  1.74872	  0.01296	 -0.19003	  3.17534	709.75000	 25.40	
 20.005	 17.433	  2.44530	  2.88671	 -0.66514	  1.36082	  0.30398	 -0.17348	  3.17374	709.73999	 25.40	
 20.006	  5.780	  2.44347	  2.96865	 -0.70979	  0.97898	  0.63940	 -0.16405	  3.17170	709.71002	 25.40	
 20.006	 -5.780	  2.45273	  2.96328	 -0.69489	  0.61906	  1.01698	 -0.15081	  3.17296	709.72998	 25.40	
 20.005	-17.433	  2.45857	  2.87166	 -0.64440	  0.29336	  1.40491	 -0.13703	  3.17330	709.79999	 25.40	
 20.004	-29.051	  2.47043	  2.68932	 -0.54118	  0.01439	  1.79008	 -0.12882	  3.17219	709.66998	 25.40	
 19.999	-40.602	  2.48240	  2.43293	 -0.38969	 -0.20857	  2.14536	 -0.11804	  3.17110	709.71997	 25.40	
 19.989	-52.269	  2.50133	  2.11402	 -0.17752	 -0.37744	  2.45313	 -0.11126	  3.17161	709.73999	 25.40	
 20.009	-63.844	  2.51115	  1.75364	  0.08083	 -0.50209	  2.69317	 -0.10108	  3.16985	709.70001	 25.40	
 19.992	-75.457	  2.52698	  1.37405	  0.39521	 -0.57178	  2.84910	 -0.09678	  3.16984	709.71002	 25.40	
 19.999	-87.075	  2.54232	  0.99649	  0.74986	 -0.59358	  2.90991	 -0.09331	  3.17004	709.71002	 25.40	
 19.989	-98.733	  2.55670	  0.64045	  1.13709	 -0.57216	  2.88620	 -0.08848	  3.17144	709.72998	 25.40	
 20.005	-110.327	  2.56189	  0.31956	  1.52443	 -0.50823	  2.77177	 -0.09025	  3.16969	709.70001	 25.40	
 20.009	-121.926	  2.57320	  0.04529	  1.90523	 -0.38781	  2.56798	 -0.09487	  3.17234	709.73999	 25.40	
 19.995	-133.545	  2.58292	 -0.17803	  2.25165	 -0.21333	  2.28584	 -0.10188	  3.17227	709.78003	 25.40	
 20.000	-145.147	  2.58765	 -0.34640	  2.53281	  0.01146	  1.94676	 -0.10727	  3.17068	709.71997	 25.40	
 20.008	-156.764	  2.58757	 -0.47148	  2.74326	  0.28474	  1.56775	 -0.12226	  3.17000	709.65997	 25.40	
 20.003	-168.362	  2.58934	 -0.53643	  2.86258	  0.61025	  1.18297	 -0.12605	  3.17052	709.72998	 25.40	
 20.000	180.000	  2.58134	 -0.55999	  2.88979	  0.97029	  0.79655	 -0.14568	  3.16927	709.85999	 25.40	
