FileType=PCF
NHL=14
Date=08/30/17	16:01:02
Facility=APL
Serial=16328-19
Customer=NASA
NP=6
Mach=0.050000
Calibration=1:1
CalPts=490
TstPts=95
PortNumbering=AP Standard
Units=Torr C m/s kg/m^3 deg mm 
Theta[deg]	Phi[deg]	P1[Torr]	P2[Torr]	P3[Torr]	P4[Torr]	P5[Torr]	P6[Torr]	Pt[Torr]	Ps[Abs,Torr]	Ts[C]	
  0.000	  0.000	  1.37992	  0.72770	  0.73249	  0.72983	  0.76057	  0.00467	  1.37266	705.04303	 22.30	
  1.691	128.401	  1.38046	  0.69682	  0.76381	  0.77102	  0.71480	  0.00428	  1.37331	705.00800	 22.30	
  1.692	 77.194	  1.37971	  0.74194	  0.71460	  0.78325	  0.70222	  0.00411	  1.37283	705.02899	 22.30	
  1.699	 26.182	  1.38273	  0.78938	  0.67381	  0.74914	  0.73423	  0.00373	  1.37598	705.05499	 22.30	
  1.699	-26.182	  1.38053	  0.78698	  0.67195	  0.69203	  0.79026	  0.00234	  1.37450	705.14502	 22.30	
  1.692	-77.194	  1.38048	  0.73911	  0.71190	  0.66291	  0.82538	  0.00201	  1.37429	705.11102	 22.30	
  1.691	-128.401	  1.37718	  0.68583	  0.76453	  0.67115	  0.81042	  0.00314	  1.37044	705.04102	 22.30	
  1.700	180.000	  1.37921	  0.66777	  0.79108	  0.72168	  0.75916	  0.00491	  1.37221	705.00500	 22.30	
  3.400	180.000	  1.37775	  0.59481	  0.85945	  0.71420	  0.75422	  0.00102	  1.37351	705.15900	 22.30	
  3.388	-152.325	  1.37820	  0.60828	  0.84177	  0.65384	  0.81929	 -0.00052	  1.37442	705.01801	 22.30	
  3.397	-124.529	  1.37391	  0.64435	  0.79496	  0.60659	  0.86691	 -0.00095	  1.37056	705.11499	 22.30	
  3.399	-96.763	  1.37525	  0.70481	  0.73369	  0.58819	  0.89273	 -0.00175	  1.37247	705.16803	 22.30	
  3.394	-69.283	  1.37567	  0.76847	  0.67243	  0.59520	  0.88483	 -0.00117	  1.37260	704.98499	 22.30	
  3.400	-41.398	  1.37329	  0.82403	  0.62039	  0.62592	  0.84537	 -0.00113	  1.36930	704.94800	 22.30	
  3.401	-14.021	  1.37476	  0.85664	  0.59428	  0.67797	  0.79006	 -0.00162	  1.36965	705.08801	 22.30	
  3.401	 14.021	  1.37282	  0.85586	  0.59489	  0.74284	  0.72203	 -0.00001	  1.36660	705.07397	 22.30	
  3.400	 41.398	  1.37261	  0.82681	  0.62003	  0.80152	  0.66758	  0.00132	  1.36653	705.00403	 22.30	
  3.394	 69.283	  1.37686	  0.77132	  0.67297	  0.84279	  0.63827	  0.00150	  1.37145	705.14697	 22.30	
  3.399	 96.763	  1.37740	  0.70820	  0.73478	  0.85071	  0.63445	  0.00152	  1.37232	704.95300	 22.30	
  3.397	124.529	  1.37707	  0.65125	  0.79597	  0.82755	  0.65269	  0.00279	  1.37204	705.05798	 22.30	
  3.388	152.325	  1.37481	  0.60838	  0.84122	  0.77684	  0.69285	  0.00103	  1.37066	705.05798	 22.30	
  5.099	161.165	  1.36877	  0.53153	  0.90981	  0.77286	  0.68003	 -0.00331	  1.36989	704.98700	 22.30	
  5.109	142.013	  1.37089	  0.56113	  0.87724	  0.83475	  0.62562	 -0.00314	  1.37215	704.90302	 22.30	
  5.095	123.033	  1.37136	  0.60771	  0.82333	  0.88152	  0.58709	 -0.00486	  1.37050	705.03302	 22.30	
  5.105	104.191	  1.37138	  0.66509	  0.75988	  0.91039	  0.56325	 -0.00385	  1.37087	705.00098	 22.30	
  5.093	 85.207	  1.37623	  0.73532	  0.69428	  0.91831	  0.56050	 -0.00473	  1.37479	705.00500	 22.30	
  5.104	 66.290	  1.37509	  0.80171	  0.63140	  0.90125	  0.57346	 -0.00327	  1.37502	705.12201	 22.30	
  5.094	 47.331	  1.37391	  0.86008	  0.57841	  0.85896	  0.60507	 -0.00460	  1.37315	705.01202	 22.30	
  5.089	 28.397	  1.37231	  0.90298	  0.53958	  0.80286	  0.65351	 -0.00354	  1.37246	705.00800	 22.30	
  5.096	  9.576	  1.37150	  0.92523	  0.51925	  0.73853	  0.71449	 -0.00457	  1.37324	705.10797	 22.30	
  5.096	 -9.576	  1.36990	  0.92371	  0.51950	  0.66830	  0.78275	 -0.00589	  1.37271	705.21198	 22.30	
  5.089	-28.397	  1.36777	  0.89815	  0.53647	  0.60773	  0.84531	 -0.00890	  1.37146	705.05798	 22.30	
  5.094	-47.331	  1.37092	  0.85429	  0.57808	  0.56012	  0.90350	 -0.00810	  1.37516	704.97302	 22.30	
  5.104	-66.290	  1.37063	  0.79542	  0.62799	  0.52420	  0.94474	 -0.00925	  1.37628	705.15002	 22.30	
  5.093	-85.207	  1.36799	  0.72673	  0.69180	  0.50969	  0.95989	 -0.00925	  1.37336	705.00500	 22.30	
  5.105	-104.191	  1.36729	  0.65805	  0.75956	  0.51492	  0.95266	 -0.00846	  1.37194	705.01202	 22.30	
  5.095	-123.033	  1.36811	  0.59923	  0.82429	  0.54073	  0.92311	 -0.00684	  1.37313	705.09998	 22.30	
  5.109	-142.013	  1.36975	  0.55381	  0.87907	  0.58352	  0.87528	 -0.00592	  1.37404	705.11401	 22.30	
  5.099	-161.165	  1.37196	  0.52759	  0.91394	  0.64314	  0.81384	 -0.00388	  1.37480	705.09802	 22.30	
  5.100	180.000	  1.36945	  0.51868	  0.92278	  0.70444	  0.74572	 -0.00436	  1.37227	704.99799	 22.30	
  6.800	180.000	  1.36200	  0.44037	  0.99012	  0.69440	  0.73406	 -0.01146	  1.37603	704.95300	 22.30	
  6.796	-166.229	  1.35506	  0.44400	  0.97688	  0.62795	  0.79655	 -0.01099	  1.37164	705.05200	 22.30	
  6.808	-152.311	  1.34949	  0.46089	  0.94856	  0.56418	  0.85821	 -0.01202	  1.36690	704.88599	 22.30	
  6.795	-138.383	  1.34969	  0.49365	  0.90743	  0.51170	  0.91679	 -0.01466	  1.36874	704.98700	 22.30	
  6.792	-124.591	  1.35144	  0.54107	  0.85617	  0.47366	  0.96548	 -0.01476	  1.37023	704.99597	 22.30	
  6.787	-110.754	  1.35212	  0.59761	  0.79428	  0.44631	  0.99866	 -0.01488	  1.37172	705.02899	 22.30	
  6.800	-96.985	  1.34982	  0.65981	  0.72905	  0.43343	  1.01452	 -0.01536	  1.36962	705.01898	 22.30	
  6.800	-83.015	  1.35072	  0.72524	  0.66151	  0.43135	  1.01657	 -0.01857	  1.36924	704.97699	 22.30	
  6.787	-69.246	  1.35307	  0.79352	  0.60028	  0.44616	  1.00032	 -0.01822	  1.37247	705.13599	 22.30	
  6.792	-55.409	  1.35365	  0.85572	  0.54315	  0.47035	  0.97043	 -0.01781	  1.37266	705.01300	 22.30	
  6.795	-41.617	  1.35567	  0.91013	  0.49981	  0.51315	  0.92416	 -0.01656	  1.37251	704.97699	 22.30	
  6.808	-27.689	  1.35494	  0.95150	  0.46259	  0.56184	  0.86653	 -0.01735	  1.37067	704.89099	 22.30	
  6.796	-13.771	  1.35654	  0.97912	  0.44342	  0.62254	  0.80220	 -0.01438	  1.37031	705.11401	 22.30	
  6.800	  0.000	  1.35952	  0.98992	  0.43723	  0.68798	  0.73688	 -0.01404	  1.37298	704.99799	 22.30	
  6.796	 13.771	  1.35737	  0.98041	  0.44360	  0.75465	  0.66968	 -0.01341	  1.36892	705.03601	 22.30	
  6.808	 27.689	  1.35696	  0.95696	  0.46286	  0.81887	  0.61001	 -0.01228	  1.36841	705.04700	 22.30	
  6.795	 41.617	  1.36369	  0.92052	  0.50069	  0.87985	  0.56296	 -0.01031	  1.37300	705.06403	 22.30	
  6.792	 55.409	  1.36415	  0.86773	  0.54765	  0.92789	  0.52401	 -0.01045	  1.37258	705.10498	 22.30	
  6.787	 69.246	  1.36521	  0.80471	  0.60307	  0.96319	  0.49509	 -0.01182	  1.37357	704.98102	 22.30	
  6.800	 83.015	  1.36312	  0.73745	  0.66416	  0.97973	  0.48070	 -0.01129	  1.37178	705.04700	 22.30	
  6.800	 96.985	  1.36212	  0.66986	  0.73076	  0.97944	  0.48136	 -0.01323	  1.37063	705.22601	 22.30	
  6.787	110.754	  1.36259	  0.60967	  0.79506	  0.96323	  0.49681	 -0.01159	  1.37109	705.04999	 22.30	
  6.792	124.591	  1.36372	  0.55441	  0.85822	  0.93049	  0.52414	 -0.01083	  1.37260	705.02100	 22.30	
  6.795	138.383	  1.36136	  0.50820	  0.91074	  0.88159	  0.56285	 -0.00989	  1.37102	705.04999	 22.30	
  6.808	152.311	  1.35768	  0.47042	  0.95010	  0.82221	  0.61008	 -0.01072	  1.36978	705.10498	 22.30	
  6.796	166.229	  1.35732	  0.44809	  0.97712	  0.75957	  0.66796	 -0.01010	  1.37009	705.10498	 22.30	
  8.491	168.704	  1.34011	  0.36929	  1.03409	  0.74639	  0.64924	 -0.01780	  1.36977	704.99402	 22.30	
  8.502	157.493	  1.34410	  0.38781	  1.01570	  0.81303	  0.58984	 -0.01817	  1.37242	705.10303	 22.30	
  8.494	146.194	  1.34305	  0.41451	  0.97952	  0.87378	  0.53457	 -0.01968	  1.37001	705.00800	 22.30	
  8.495	135.039	  1.34695	  0.45488	  0.93580	  0.93256	  0.48878	 -0.01884	  1.37272	705.05499	 22.30	
  8.487	123.723	  1.34364	  0.50231	  0.87694	  0.97500	  0.45075	 -0.01876	  1.36820	705.12201	 22.30	
  8.492	112.575	  1.34375	  0.55826	  0.81369	  1.00991	  0.42272	 -0.01986	  1.36844	704.99402	 22.30	
  8.510	101.220	  1.34373	  0.62189	  0.74550	  1.03150	  0.40528	 -0.01965	  1.36760	705.00800	 22.30	
  8.500	 90.000	  1.34548	  0.68846	  0.67792	  1.03758	  0.40158	 -0.01945	  1.36832	704.93903	 22.30	
  8.510	 78.780	  1.34650	  0.75777	  0.61304	  1.03040	  0.40756	 -0.01870	  1.36911	704.92200	 22.30	
  8.492	 67.425	  1.34229	  0.82188	  0.54681	  1.00343	  0.42150	 -0.02282	  1.36588	704.94800	 22.30	
  8.487	 56.277	  1.34853	  0.88875	  0.49650	  0.97479	  0.45294	 -0.01798	  1.37270	704.98798	 22.30	
  8.495	 44.961	  1.34565	  0.94334	  0.44666	  0.92637	  0.49028	 -0.01747	  1.37087	705.06299	 22.30	
  8.494	 33.806	  1.35082	  0.99107	  0.41197	  0.87345	  0.53938	 -0.02020	  1.37680	705.04999	 22.30	
  8.502	 22.507	  1.34512	  1.02255	  0.38111	  0.80927	  0.59224	 -0.02072	  1.37298	705.04102	 22.30	
  8.491	 11.296	  1.34034	  1.04041	  0.36355	  0.74018	  0.65273	 -0.01992	  1.36890	705.00800	 22.30	
  8.500	  0.000	  1.34005	  1.04823	  0.35654	  0.66981	  0.72086	 -0.02099	  1.36961	705.00201	 22.30	
  8.491	-11.296	  1.34170	  1.03921	  0.36322	  0.60380	  0.78921	 -0.02509	  1.37257	704.99402	 22.30	
  8.502	-22.507	  1.33928	  1.01749	  0.38016	  0.54340	  0.85444	 -0.02302	  1.37150	705.10303	 22.30	
  8.494	-33.806	  1.33225	  0.97635	  0.40581	  0.48330	  0.91326	 -0.02532	  1.36560	705.08002	 22.20	
  8.495	-44.961	  1.33418	  0.93046	  0.44398	  0.43671	  0.96970	 -0.02647	  1.36902	705.08600	 22.20	
  8.487	-56.277	  1.33728	  0.87499	  0.49544	  0.40113	  1.01808	 -0.02711	  1.37404	704.98700	 22.20	
  8.492	-67.425	  1.33790	  0.81499	  0.55036	  0.37740	  1.04969	 -0.02748	  1.37501	704.96301	 22.20	
  8.510	-78.780	  1.33492	  0.74569	  0.61196	  0.35634	  1.07120	 -0.02827	  1.37311	705.02899	 22.20	
  8.500	-90.000	  1.33495	  0.67700	  0.67748	  0.34992	  1.07872	 -0.02977	  1.37362	705.03601	 22.20	
  8.510	-101.220	  1.33203	  0.60872	  0.74656	  0.35754	  1.06780	 -0.02398	  1.37074	704.98798	 22.20	
  8.492	-112.575	  1.33400	  0.54522	  0.81604	  0.37543	  1.04726	 -0.02359	  1.37202	704.95697	 22.20	
  8.487	-123.723	  1.33538	  0.49205	  0.87793	  0.40299	  1.01450	 -0.02348	  1.37376	705.07202	 22.20	
  8.495	-135.039	  1.33823	  0.44508	  0.93661	  0.44375	  0.97012	 -0.01950	  1.37582	704.97400	 22.20	
  8.494	-146.194	  1.33736	  0.40664	  0.98030	  0.49001	  0.91388	 -0.01969	  1.37328	705.15002	 22.20	
  8.502	-157.493	  1.33673	  0.37896	  1.01539	  0.54813	  0.84909	 -0.01948	  1.37122	704.98798	 22.20	
  8.491	-168.704	  1.34166	  0.36150	  1.03949	  0.61120	  0.78308	 -0.02061	  1.37583	704.94800	 22.20	
  8.500	180.000	  1.33982	  0.36139	  1.04365	  0.67486	  0.71868	 -0.01886	  1.37136	704.93903	 22.20	
 10.200	180.000	  1.31731	  0.27888	  1.09726	  0.65648	  0.69547	 -0.02842	  1.37094	705.06000	 22.20	
 10.191	-170.497	  1.31688	  0.28298	  1.09217	  0.59051	  0.76376	 -0.02874	  1.37218	704.95398	 22.20	
 10.210	-161.034	  1.31342	  0.29455	  1.07314	  0.52541	  0.83010	 -0.02925	  1.37083	704.84698	 22.20	
 10.194	-151.526	  1.31221	  0.31743	  1.04299	  0.46425	  0.89584	 -0.02855	  1.37136	704.98102	 22.20	
 10.190	-142.105	  1.31372	  0.34851	  1.00378	  0.41192	  0.95774	 -0.02890	  1.37402	704.90002	 22.20	
 10.215	-132.646	  1.31217	  0.38835	  0.95237	  0.36681	  1.01094	 -0.02954	  1.37433	704.97699	 22.20	
 10.203	-123.092	  1.30664	  0.43296	  0.89124	  0.32416	  1.05375	 -0.03521	  1.37061	704.86700	 22.20	
 10.192	-113.678	  1.31022	  0.49334	  0.83044	  0.30185	  1.08961	 -0.03316	  1.37296	704.90100	 22.20	
 10.208	-104.249	  1.30708	  0.55230	  0.76086	  0.27983	  1.11395	 -0.03550	  1.37037	705.04999	 22.20	
 10.210	-94.801	  1.31287	  0.61991	  0.69591	  0.27082	  1.13167	 -0.03657	  1.37648	704.95599	 22.20	
 10.210	-85.199	  1.30779	  0.68786	  0.62178	  0.26833	  1.12817	 -0.04053	  1.37170	704.96997	 22.20	
 10.208	-75.751	  1.31268	  0.76030	  0.55897	  0.28237	  1.11796	 -0.03976	  1.37458	705.03601	 22.20	
 10.192	-66.322	  1.30876	  0.82316	  0.49643	  0.29791	  1.09061	 -0.03943	  1.36990	705.07501	 22.20	
 10.203	-56.908	  1.31037	  0.88935	  0.43902	  0.32486	  1.05761	 -0.03780	  1.37077	705.00201	 22.20	
 10.215	-47.354	  1.31010	  0.94772	  0.38983	  0.36186	  1.01200	 -0.03502	  1.36951	704.97900	 22.20	
 10.190	-37.895	  1.31360	  1.00030	  0.35137	  0.40801	  0.96002	 -0.03623	  1.37134	704.96997	 22.20	
 10.194	-28.474	  1.31514	  1.04360	  0.31699	  0.45960	  0.90136	 -0.03504	  1.37161	704.95599	 22.20	
 10.210	-18.966	  1.31086	  1.06962	  0.29339	  0.51657	  0.83259	 -0.03344	  1.36625	704.96002	 22.20	
 10.191	 -9.503	  1.31163	  1.08751	  0.28051	  0.57942	  0.76578	 -0.03116	  1.36415	704.80103	 22.20	
 10.200	  0.000	  1.31891	  1.10101	  0.27660	  0.65059	  0.70089	 -0.03252	  1.37101	704.98999	 22.20	
 10.191	  9.503	  1.32091	  1.09664	  0.28168	  0.72168	  0.63266	 -0.03179	  1.37147	705.01202	 22.20	
 10.210	 18.966	  1.31816	  1.07735	  0.29331	  0.78693	  0.56714	 -0.03191	  1.36651	704.90601	 22.20	
 10.194	 28.474	  1.32211	  1.05056	  0.31873	  0.85531	  0.51006	 -0.02810	  1.36974	704.97302	 22.20	
 10.190	 37.895	  1.32470	  1.01283	  0.35103	  0.91797	  0.45794	 -0.02701	  1.37206	704.95697	 22.20	
 10.215	 47.354	  1.32560	  0.96416	  0.39326	  0.97264	  0.41527	 -0.02579	  1.37055	705.04999	 22.20	
 10.203	 56.908	  1.32844	  0.90808	  0.44333	  1.01911	  0.38064	 -0.02792	  1.37195	704.91400	 22.20	
 10.192	 66.322	  1.32809	  0.84270	  0.49991	  1.05382	  0.35328	 -0.02757	  1.37043	704.94202	 22.20	
 10.208	 75.751	  1.32549	  0.77491	  0.55806	  1.07796	  0.33305	 -0.02866	  1.36875	704.88702	 22.20	
 10.210	 85.199	  1.32980	  0.70701	  0.62584	  1.09386	  0.32322	 -0.02954	  1.37190	704.93402	 22.20	
 10.210	 94.801	  1.32744	  0.63784	  0.69441	  1.09374	  0.32379	 -0.02966	  1.37119	704.75702	 22.20	
 10.208	104.249	  1.32490	  0.57125	  0.76007	  1.07907	  0.33233	 -0.03199	  1.36870	704.86700	 22.20	
 10.192	113.678	  1.32388	  0.50912	  0.82912	  1.05486	  0.35208	 -0.02857	  1.36804	704.83801	 22.20	
 10.203	123.092	  1.32557	  0.45222	  0.89463	  1.02300	  0.37786	 -0.02831	  1.37082	704.82397	 22.20	
 10.215	132.646	  1.32362	  0.40227	  0.95140	  0.97642	  0.41324	 -0.02747	  1.37004	704.92297	 22.20	
 10.190	142.105	  1.32280	  0.36126	  1.00218	  0.92263	  0.45898	 -0.02702	  1.37028	704.85999	 22.20	
 10.194	151.526	  1.31985	  0.32762	  1.04111	  0.86050	  0.50825	 -0.02864	  1.36872	704.92200	 22.20	
 10.210	161.034	  1.32110	  0.30018	  1.07485	  0.79537	  0.56793	 -0.02719	  1.37148	704.88300	 22.20	
 10.191	170.497	  1.31792	  0.28563	  1.09123	  0.72672	  0.62739	 -0.02753	  1.36978	704.83600	 22.20	
 11.899	171.783	  1.29533	  0.20677	  1.14420	  0.70610	  0.60713	 -0.03687	  1.37448	704.83002	 22.20	
 11.890	163.610	  1.28910	  0.21745	  1.12288	  0.77056	  0.54062	 -0.03692	  1.36718	704.75403	 22.20	
 11.889	155.445	  1.28782	  0.23810	  1.09304	  0.83664	  0.47933	 -0.03755	  1.36330	704.83899	 22.20	
 11.909	147.299	  1.29190	  0.26513	  1.06188	  0.90386	  0.42490	 -0.03936	  1.36813	704.86902	 22.20	
 11.902	139.148	  1.29610	  0.30413	  1.01649	  0.96299	  0.37981	 -0.03753	  1.36865	704.84698	 22.20	
 11.894	130.867	  1.29827	  0.34943	  0.96430	  1.01651	  0.33907	 -0.03914	  1.36970	704.86902	 22.20	
 11.897	122.732	  1.29785	  0.39657	  0.90636	  1.06150	  0.30313	 -0.04074	  1.36848	704.75098	 22.20	
 11.903	114.597	  1.29905	  0.45325	  0.84177	  1.09698	  0.27594	 -0.04173	  1.36858	704.71100	 22.20	
 11.893	106.346	  1.30099	  0.51562	  0.77454	  1.12431	  0.25767	 -0.04176	  1.36961	704.71802	 22.20	
 11.892	 98.155	  1.30384	  0.58288	  0.70581	  1.14104	  0.24649	 -0.04170	  1.37250	704.80103	 22.20	
 11.900	 90.000	  1.30224	  0.64948	  0.63643	  1.14520	  0.24173	 -0.04089	  1.37056	704.84198	 22.20	
 11.892	 81.845	  1.30087	  0.71767	  0.56801	  1.13676	  0.24672	 -0.03942	  1.36900	704.96002	 22.20	
 11.893	 73.654	  1.30036	  0.78740	  0.50123	  1.12036	  0.25627	 -0.03862	  1.36922	704.86902	 22.20	
 11.903	 65.403	  1.29925	  0.85364	  0.44210	  1.09302	  0.27569	 -0.03889	  1.36769	704.77399	 22.20	
 11.897	 57.268	  1.29958	  0.91787	  0.38745	  1.05690	  0.30442	 -0.03836	  1.36938	704.91699	 22.20	
 11.894	 49.133	  1.30132	  0.97643	  0.34073	  1.01218	  0.34138	 -0.03796	  1.37112	704.76501	 22.20	
 11.902	 40.852	  1.29216	  1.02526	  0.29446	  0.95249	  0.38176	 -0.03551	  1.36320	704.83600	 22.20	
 11.909	 32.701	  1.29951	  1.07527	  0.26041	  0.89966	  0.43005	 -0.03751	  1.37409	704.82703	 22.20	
 11.889	 24.555	  1.29492	  1.10562	  0.23199	  0.83302	  0.48546	 -0.04083	  1.36909	704.73901	 22.20	
 11.890	 16.390	  1.29122	  1.12779	  0.21235	  0.76315	  0.54468	 -0.04179	  1.36600	704.88702	 22.20	
 11.899	  8.217	  1.29119	  1.14409	  0.20011	  0.69461	  0.60916	 -0.04145	  1.36703	704.72101	 22.20	
 11.900	  0.000	  1.28788	  1.14680	  0.19526	  0.62554	  0.67529	 -0.03956	  1.36573	704.80499	 22.20	
 11.899	 -8.217	  1.28991	  1.14380	  0.19823	  0.55768	  0.74531	 -0.04179	  1.37033	704.76599	 22.20	
 11.890	-16.390	  1.29136	  1.12787	  0.21171	  0.49477	  0.81485	 -0.04244	  1.37374	704.78497	 22.20	
 11.889	-24.555	  1.29044	  1.10130	  0.23084	  0.43430	  0.88234	 -0.04393	  1.37435	704.83600	 22.20	
 11.909	-32.701	  1.28845	  1.06238	  0.25979	  0.37918	  0.94490	 -0.04530	  1.37302	704.83197	 22.20	
 11.902	-40.852	  1.28541	  1.01583	  0.29385	  0.33174	  0.99930	 -0.04679	  1.37110	704.86700	 22.20	
 11.894	-49.133	  1.28095	  0.95928	  0.33647	  0.28714	  1.04995	 -0.04612	  1.36854	704.74597	 22.20	
 11.897	-57.268	  1.28127	  0.89827	  0.38730	  0.25302	  1.09478	 -0.04660	  1.36965	704.65900	 22.20	
 11.903	-65.403	  1.27953	  0.83482	  0.43915	  0.22453	  1.12850	 -0.04999	  1.36892	704.79102	 22.20	
 11.893	-73.654	  1.27902	  0.76667	  0.50098	  0.20563	  1.15383	 -0.05004	  1.36986	704.73901	 22.20	
 11.892	-81.845	  1.28167	  0.69875	  0.56821	  0.19471	  1.17160	 -0.04919	  1.37293	704.82202	 22.20	
 11.900	-90.000	  1.27436	  0.62623	  0.63240	  0.18925	  1.17097	 -0.05122	  1.36645	704.77600	 22.20	
 11.892	-98.155	  1.27512	  0.56073	  0.70129	  0.19422	  1.16630	 -0.04835	  1.36642	704.86401	 22.20	
 11.893	-106.346	  1.27340	  0.49189	  0.77001	  0.20352	  1.15007	 -0.04881	  1.36563	704.84399	 22.20	
 11.903	-114.597	  1.27458	  0.43221	  0.83833	  0.22596	  1.12337	 -0.04493	  1.36685	704.85602	 22.20	
 11.897	-122.732	  1.27952	  0.38256	  0.90386	  0.25486	  1.09233	 -0.04199	  1.37160	704.72101	 22.20	
 11.894	-130.867	  1.28347	  0.33428	  0.96474	  0.29135	  1.04926	 -0.04148	  1.37386	704.81598	 22.20	
 11.902	-139.148	  1.28004	  0.28945	  1.01687	  0.33351	  0.99360	 -0.03860	  1.36895	704.89099	 22.20	
 11.909	-147.299	  1.28111	  0.25663	  1.06158	  0.38402	  0.93673	 -0.03893	  1.37012	704.86401	 22.20	
 11.889	-155.445	  1.28618	  0.23020	  1.10029	  0.44131	  0.87538	 -0.03904	  1.37287	704.83002	 22.20	
 11.890	-163.610	  1.28800	  0.21394	  1.12573	  0.50295	  0.80936	 -0.03962	  1.37218	704.70398	 22.20	
 11.899	-171.783	  1.28541	  0.20344	  1.13790	  0.56546	  0.73897	 -0.03995	  1.36757	704.72803	 22.20	
 11.900	180.000	  1.29065	  0.19994	  1.14736	  0.63520	  0.67270	 -0.03822	  1.37139	704.78003	 22.20	
 13.600	180.000	  1.25466	  0.11999	  1.18872	  0.60675	  0.64324	 -0.05115	  1.36796	704.71100	 22.30	
 13.608	-172.853	  1.25051	  0.12162	  1.18227	  0.53973	  0.70980	 -0.05037	  1.36541	704.80402	 22.30	
 13.611	-165.583	  1.25237	  0.13028	  1.17228	  0.47471	  0.77998	 -0.05009	  1.36961	704.87799	 22.30	
 13.601	-158.353	  1.24963	  0.14642	  1.14586	  0.41110	  0.84790	 -0.04942	  1.36845	704.72601	 22.20	
 13.609	-151.210	  1.24804	  0.16943	  1.11395	  0.35565	  0.91172	 -0.04741	  1.36918	704.69800	 22.30	
 13.611	-143.999	  1.24797	  0.19539	  1.07637	  0.30173	  0.97373	 -0.05063	  1.37130	704.83502	 22.30	
 13.601	-136.825	  1.24653	  0.23366	  1.02591	  0.25380	  1.03152	 -0.05165	  1.37107	704.71698	 22.30	
 13.596	-129.640	  1.24529	  0.27643	  0.97056	  0.21447	  1.08059	 -0.04982	  1.37016	704.72900	 22.30	
 13.611	-122.431	  1.24455	  0.32346	  0.91155	  0.17849	  1.12542	 -0.05315	  1.37086	704.69000	 22.30	
 13.604	-115.211	  1.24087	  0.37602	  0.84488	  0.15142	  1.15724	 -0.05349	  1.36667	704.71399	 22.30	
 13.595	-108.042	  1.24434	  0.43595	  0.78143	  0.13387	  1.18714	 -0.05483	  1.37056	704.75201	 22.30	
 13.607	-100.793	  1.24341	  0.49975	  0.71012	  0.11825	  1.20577	 -0.05637	  1.36946	704.60498	 22.30	
 13.601	-93.617	  1.24820	  0.56656	  0.64327	  0.10957	  1.22061	 -0.05889	  1.37525	704.61798	 22.30	
 13.601	-86.383	  1.24661	  0.63577	  0.57402	  0.11128	  1.21824	 -0.05915	  1.37138	704.66602	 22.30	
 13.607	-79.207	  1.24294	  0.70238	  0.50481	  0.11569	  1.20628	 -0.05800	  1.36723	704.80701	 22.30	
 13.595	-71.958	  1.24704	  0.77501	  0.44273	  0.13150	  1.19093	 -0.05878	  1.37131	704.63898	 22.30	
 13.604	-64.789	  1.24910	  0.84346	  0.38629	  0.15301	  1.16573	 -0.05391	  1.37081	704.73700	 22.30	
 13.611	-57.569	  1.25146	  0.91012	  0.33006	  0.17840	  1.13255	 -0.05548	  1.37408	704.63599	 22.30	
 13.596	-50.360	  1.24847	  0.96678	  0.28199	  0.21285	  1.08467	 -0.05440	  1.36926	704.74200	 22.30	
 13.601	-43.175	  1.24886	  1.02081	  0.23855	  0.25202	  1.03337	 -0.05355	  1.36745	704.73102	 22.30	
 13.611	-36.001	  1.25160	  1.07193	  0.20040	  0.29723	  0.97946	 -0.05176	  1.36956	704.60797	 22.30	
 13.609	-28.790	  1.25364	  1.11579	  0.17052	  0.34898	  0.92035	 -0.05083	  1.37090	704.67297	 22.30	
 13.601	-21.647	  1.25519	  1.14861	  0.14751	  0.40420	  0.85638	 -0.05032	  1.37061	704.56299	 22.30	
 13.611	-14.417	  1.25706	  1.17436	  0.12822	  0.46298	  0.78868	 -0.05108	  1.37097	704.60199	 22.30	
 13.608	 -7.147	  1.25908	  1.19051	  0.11998	  0.53405	  0.71830	 -0.04927	  1.37135	704.54199	 22.30	
 13.600	  0.000	  1.26200	  1.19724	  0.11636	  0.60052	  0.65248	 -0.05038	  1.37323	704.59601	 22.30	
 13.608	  7.147	  1.25976	  1.19080	  0.11939	  0.66613	  0.58407	 -0.05025	  1.36751	704.54797	 22.30	
 13.611	 14.417	  1.26416	  1.18220	  0.13039	  0.73949	  0.52073	 -0.05058	  1.37204	704.51801	 22.30	
 13.601	 21.647	  1.26422	  1.15950	  0.14710	  0.80855	  0.45778	 -0.04820	  1.37118	704.65802	 22.30	
 13.609	 28.790	  1.26615	  1.12909	  0.17000	  0.87397	  0.40183	 -0.04887	  1.37139	704.53198	 22.30	
 13.611	 36.001	  1.26687	  1.08817	  0.20278	  0.93776	  0.34985	 -0.04774	  1.37029	704.53198	 22.30	
 13.601	 43.175	  1.26848	  1.04139	  0.24136	  0.99436	  0.30727	 -0.04492	  1.36949	704.58301	 22.30	
 13.596	 50.360	  1.26961	  0.98846	  0.28217	  1.04893	  0.26369	 -0.04686	  1.37026	704.66998	 22.30	
 13.611	 57.569	  1.26909	  0.92745	  0.32996	  1.09223	  0.22972	 -0.04752	  1.36933	704.51801	 22.30	
 13.604	 64.789	  1.26847	  0.86297	  0.38472	  1.12779	  0.20325	 -0.04804	  1.36705	704.67200	 22.30	
 13.595	 71.958	  1.27029	  0.79758	  0.44294	  1.15735	  0.18335	 -0.04792	  1.36868	704.57703	 22.30	
 13.607	 79.207	  1.26952	  0.72749	  0.50722	  1.17673	  0.16921	 -0.04963	  1.36745	704.67200	 22.30	
 13.601	 86.383	  1.26993	  0.65835	  0.57333	  1.18601	  0.16353	 -0.04979	  1.36734	704.62402	 22.30	
 13.601	 93.617	  1.27110	  0.58846	  0.64370	  1.18840	  0.16252	 -0.05112	  1.36910	704.67297	 22.30	
 13.607	100.793	  1.26929	  0.52399	  0.71063	  1.17909	  0.16870	 -0.05170	  1.36779	704.50897	 22.30	
 13.595	108.042	  1.27000	  0.45934	  0.78083	  1.16136	  0.18247	 -0.05294	  1.36921	704.67297	 22.30	
 13.604	115.211	  1.27150	  0.39721	  0.85081	  1.13696	  0.20152	 -0.05377	  1.37293	704.68903	 22.30	
 13.611	122.431	  1.27023	  0.34339	  0.91475	  1.10017	  0.22969	 -0.05062	  1.37156	704.55402	 22.30	
 13.596	129.640	  1.26974	  0.29103	  0.97679	  1.05523	  0.26286	 -0.04907	  1.37268	704.65198	 22.30	
 13.601	136.825	  1.27050	  0.25115	  1.03194	  1.00476	  0.30423	 -0.04844	  1.37342	704.61102	 22.30	
 13.611	143.999	  1.26129	  0.20793	  1.07447	  0.94390	  0.34442	 -0.04948	  1.36711	704.73499	 22.30	
 13.609	151.210	  1.26955	  0.17875	  1.12210	  0.88629	  0.39862	 -0.04917	  1.37560	704.54498	 22.30	
 13.601	158.353	  1.26308	  0.15279	  1.15043	  0.81662	  0.45370	 -0.04824	  1.37097	704.68903	 22.30	
 13.611	165.583	  1.26448	  0.13626	  1.17674	  0.74862	  0.51654	 -0.04708	  1.37414	704.69000	 22.30	
 13.608	172.853	  1.25837	  0.12211	  1.18856	  0.67710	  0.57824	 -0.04856	  1.37056	704.63202	 22.30	
 15.298	173.587	  1.22612	  0.04915	  1.23008	  0.65215	  0.55175	 -0.05887	  1.37458	704.70898	 22.30	
 15.291	167.167	  1.22904	  0.05602	  1.22030	  0.72004	  0.48823	 -0.05724	  1.37521	704.61798	 22.30	
 15.307	160.676	  1.22545	  0.07289	  1.19435	  0.78758	  0.42460	 -0.05705	  1.36919	704.59601	 22.30	
 15.300	154.261	  1.22780	  0.09344	  1.16701	  0.85559	  0.36850	 -0.05696	  1.37084	704.58301	 22.30	
 15.288	147.854	  1.22856	  0.12117	  1.12910	  0.91879	  0.31573	 -0.05713	  1.36944	704.63898	 22.30	
 15.293	141.428	  1.23050	  0.15340	  1.08680	  0.97839	  0.26994	 -0.05610	  1.36935	704.72900	 22.30	
 15.299	134.985	  1.22983	  0.19208	  1.03426	  1.03622	  0.22501	 -0.05882	  1.36863	704.61902	 22.30	
 15.305	128.583	  1.23498	  0.23738	  0.98137	  1.08828	  0.18843	 -0.05641	  1.37256	704.72498	 22.30	
 15.309	122.142	  1.23395	  0.28617	  0.91951	  1.12929	  0.15692	 -0.06079	  1.36998	704.66400	 22.30	
 15.304	115.711	  1.23459	  0.34191	  0.85394	  1.16527	  0.13200	 -0.05975	  1.36905	704.58801	 22.30	
 15.297	109.291	  1.23440	  0.40366	  0.78506	  1.19211	  0.11413	 -0.05951	  1.36807	704.62500	 22.30	
 15.293	102.897	  1.23432	  0.46136	  0.71847	  1.21171	  0.09701	 -0.06033	  1.36845	704.68903	 22.30	
 15.293	 96.458	  1.22887	  0.52510	  0.64477	  1.21695	  0.08865	 -0.05982	  1.36006	704.63300	 22.30	
 15.300	 90.000	  1.23243	  0.59454	  0.57906	  1.22545	  0.08672	 -0.05911	  1.36498	704.54901	 22.30	
 15.293	 83.542	  1.23172	  0.66295	  0.51086	  1.22057	  0.08832	 -0.05900	  1.36405	704.66602	 22.30	
 15.293	 77.103	  1.24060	  0.73739	  0.44769	  1.21516	  0.09713	 -0.05879	  1.37436	704.66998	 22.30	
 15.297	 70.709	  1.23642	  0.80341	  0.38774	  1.18946	  0.11374	 -0.05563	  1.36995	704.64398	 22.30	
 15.304	 64.289	  1.23451	  0.86938	  0.32804	  1.15836	  0.13345	 -0.05677	  1.36790	704.62799	 22.30	
 15.309	 57.858	  1.23188	  0.93181	  0.27585	  1.12082	  0.15953	 -0.05439	  1.36606	704.62500	 22.30	
 15.305	 51.417	  1.23648	  0.99662	  0.22851	  1.07946	  0.19426	 -0.05615	  1.37324	704.53101	 22.30	
 15.299	 45.015	  1.23175	  1.04852	  0.18436	  1.02593	  0.23052	 -0.05406	  1.36828	704.66699	 22.30	
 15.293	 38.572	  1.22813	  1.09429	  0.14807	  0.96712	  0.27360	 -0.05540	  1.36617	704.56897	 22.30	
 15.288	 32.146	  1.23061	  1.14001	  0.11659	  0.90921	  0.32437	 -0.05372	  1.36856	704.55402	 22.30	
 15.300	 25.739	  1.22943	  1.17387	  0.09160	  0.84596	  0.37522	 -0.05673	  1.36859	704.46698	 22.30	
 15.307	 19.324	  1.22570	  1.20048	  0.07019	  0.77726	  0.43219	 -0.05459	  1.36744	704.64203	 22.30	
 15.291	 12.833	  1.22710	  1.22040	  0.05695	  0.70973	  0.49482	 -0.05861	  1.36901	704.58002	 22.30	
 15.298	  6.413	  1.22547	  1.23153	  0.04778	  0.64264	  0.55607	 -0.05598	  1.36971	704.59601	 22.30	
 15.300	  0.000	  1.22037	  1.23117	  0.04162	  0.56945	  0.62150	 -0.05624	  1.36656	704.46198	 22.30	
 15.298	 -6.413	  1.22188	  1.22726	  0.04605	  0.50572	  0.68942	 -0.05535	  1.36882	704.61798	 22.30	
 15.291	-12.833	  1.21948	  1.21292	  0.05645	  0.44257	  0.75588	 -0.05479	  1.36750	704.69702	 22.30	
 15.307	-19.324	  1.21810	  1.19007	  0.07109	  0.38019	  0.82439	 -0.05582	  1.36787	704.50299	 22.30	
 15.300	-25.739	  1.21565	  1.15985	  0.09009	  0.32283	  0.88853	 -0.05437	  1.36680	704.60999	 22.30	
 15.288	-32.146	  1.21465	  1.12181	  0.11964	  0.27283	  0.95092	 -0.05654	  1.36630	704.70099	 22.30	
 15.293	-38.572	  1.21384	  1.07876	  0.14856	  0.22215	  1.01184	 -0.05763	  1.36806	704.67297	 22.30	
 15.299	-45.015	  1.21016	  1.02588	  0.18458	  0.17790	  1.06421	 -0.05864	  1.36637	704.57703	 22.30	
 15.305	-51.417	  1.21399	  0.97331	  0.23102	  0.14489	  1.11594	 -0.05913	  1.37129	704.63202	 22.30	
 15.309	-57.858	  1.21333	  0.91146	  0.28084	  0.11417	  1.15813	 -0.05898	  1.37094	704.57599	 22.30	
 15.304	-64.289	  1.21143	  0.84666	  0.33548	  0.09099	  1.19216	 -0.05816	  1.36991	704.49200	 22.30	
 15.297	-70.709	  1.21130	  0.77947	  0.39010	  0.06679	  1.22175	 -0.06238	  1.37221	704.58801	 22.30	
 15.293	-77.103	  1.20572	  0.70926	  0.44609	  0.04817	  1.23888	 -0.06163	  1.36812	704.42102	 22.30	
 15.293	-83.542	  1.20499	  0.63955	  0.51297	  0.04287	  1.24762	 -0.06274	  1.36610	704.57898	 22.30	
 15.300	-90.000	  1.20805	  0.57301	  0.58197	  0.04010	  1.25589	 -0.06317	  1.37062	704.54797	 22.30	
 15.293	-96.458	  1.20682	  0.50573	  0.64981	  0.04414	  1.24990	 -0.06295	  1.37004	704.60400	 22.30	
 15.293	-102.897	  1.20840	  0.44317	  0.72074	  0.05428	  1.23918	 -0.06330	  1.37182	704.67200	 22.30	
 15.297	-109.291	  1.20731	  0.38297	  0.78612	  0.06752	  1.21768	 -0.06235	  1.37031	704.52301	 22.30	
 15.304	-115.711	  1.20521	  0.32183	  0.85240	  0.08544	  1.18804	 -0.06197	  1.36892	704.68298	 22.30	
 15.309	-122.142	  1.20564	  0.26816	  0.91492	  0.11000	  1.15266	 -0.06107	  1.36890	704.65198	 22.30	
 15.305	-128.583	  1.20818	  0.22206	  0.97748	  0.14379	  1.11180	 -0.06270	  1.37073	704.65503	 22.30	
 15.299	-134.985	  1.21018	  0.17998	  1.03320	  0.18112	  1.06245	 -0.05951	  1.37250	704.53400	 22.30	
 15.293	-141.428	  1.21123	  0.14185	  1.08489	  0.22557	  1.00693	 -0.06100	  1.37155	704.57703	 22.30	
 15.288	-147.854	  1.21390	  0.11242	  1.12789	  0.27567	  0.94879	 -0.05892	  1.37291	704.55499	 22.30	
 15.300	-154.261	  1.21498	  0.08794	  1.16541	  0.33028	  0.88455	 -0.05880	  1.37128	704.61298	 22.30	
 15.307	-160.676	  1.21820	  0.06753	  1.19436	  0.38560	  0.82244	 -0.06306	  1.37385	704.60999	 22.30	
 15.291	-167.167	  1.21779	  0.05318	  1.21488	  0.44953	  0.75210	 -0.06094	  1.37114	704.46698	 22.30	
 15.298	-173.587	  1.22070	  0.04825	  1.22792	  0.51634	  0.68440	 -0.06216	  1.37184	704.58002	 22.30	
 15.300	180.000	  1.22084	  0.04441	  1.23086	  0.58021	  0.61637	 -0.05850	  1.36989	704.67499	 22.30	
 17.000	180.000	  1.18332	 -0.01487	  1.26602	  0.55806	  0.59195	 -0.06644	  1.37183	704.63300	 22.30	
 16.990	-174.179	  1.18077	 -0.01499	  1.26314	  0.49175	  0.65609	 -0.06750	  1.37098	704.63898	 22.30	
 17.009	-168.383	  1.17933	 -0.01207	  1.25257	  0.42572	  0.72304	 -0.06966	  1.37286	704.59601	 22.30	
 17.000	-162.596	  1.17418	  0.00175	  1.22935	  0.36400	  0.78758	 -0.06854	  1.36872	704.57300	 22.30	
 16.990	-156.759	  1.17626	  0.02183	  1.20681	  0.31057	  0.85674	 -0.06620	  1.37189	704.62097	 22.30	
 16.995	-150.919	  1.17582	  0.04776	  1.17315	  0.25958	  0.91983	 -0.06427	  1.37219	704.68103	 22.30	
 16.988	-145.161	  1.17587	  0.07357	  1.13531	  0.21096	  0.98029	 -0.06512	  1.37419	704.69702	 22.30	
 17.014	-139.343	  1.16806	  0.10249	  1.08503	  0.16416	  1.03408	 -0.06249	  1.36804	704.57300	 22.30	
 17.007	-133.546	  1.16905	  0.14017	  1.03566	  0.12410	  1.08808	 -0.06357	  1.37036	704.65002	 22.30	
 17.001	-127.699	  1.16871	  0.18088	  0.97953	  0.08798	  1.13613	 -0.06500	  1.37042	704.60199	 22.30	
 17.006	-121.937	  1.16982	  0.22638	  0.92261	  0.05844	  1.17916	 -0.06514	  1.37258	704.57300	 22.30	
 17.002	-116.134	  1.16689	  0.27746	  0.85564	  0.03244	  1.21345	 -0.06572	  1.36928	704.56799	 22.30	
 17.001	-110.310	  1.17164	  0.33207	  0.79389	  0.01139	  1.24681	 -0.06398	  1.37523	704.59601	 22.30	
 16.988	-104.517	  1.16793	  0.39036	  0.72544	 -0.00134	  1.26355	 -0.06382	  1.37133	704.45801	 22.30	
 17.008	-98.662	  1.16432	  0.44863	  0.65697	 -0.01337	  1.27443	 -0.06204	  1.36727	704.57703	 22.30	
 16.996	-92.909	  1.16544	  0.51191	  0.58896	 -0.02036	  1.28321	 -0.06204	  1.36795	704.46600	 22.30	
 16.996	-87.091	  1.16557	  0.58000	  0.52168	 -0.02033	  1.28442	 -0.05941	  1.36715	704.59302	 22.30	
 17.012	-81.253	  1.16982	  0.64732	  0.45945	 -0.01682	  1.28211	 -0.05682	  1.37333	704.48297	 22.30	
 16.988	-75.483	  1.16796	  0.71221	  0.39779	 -0.00807	  1.26590	 -0.05827	  1.36978	704.48602	 22.30	
 17.001	-69.690	  1.16965	  0.78202	  0.33849	  0.00763	  1.24608	 -0.05402	  1.37028	704.49500	 22.30	
 17.002	-63.866	  1.16779	  0.84532	  0.28070	  0.02246	  1.21722	 -0.05664	  1.36932	704.45502	 22.30	
 17.006	-58.063	  1.17166	  0.91090	  0.23611	  0.05496	  1.18305	 -0.05607	  1.36961	704.45801	 22.30	
 17.001	-52.301	  1.17588	  0.97329	  0.19041	  0.08356	  1.14464	 -0.05638	  1.37268	704.50598	 22.30	
 17.007	-46.454	  1.17478	  1.02978	  0.14435	  0.11654	  1.09711	 -0.05714	  1.37117	704.47302	 22.30	
 17.014	-40.657	  1.17457	  1.07893	  0.10946	  0.15701	  1.04319	 -0.05787	  1.36719	704.40698	 22.30	
 16.988	-34.839	  1.17387	  1.12594	  0.07515	  0.20163	  0.98376	 -0.05537	  1.36557	704.49298	 22.30	
 16.995	-29.081	  1.17691	  1.16637	  0.04987	  0.25197	  0.92464	 -0.05285	  1.36665	704.50702	 22.30	
 16.990	-23.241	  1.18069	  1.20349	  0.02622	  0.30516	  0.86194	 -0.05324	  1.36954	704.50598	 22.30	
 17.000	-17.404	  1.17810	  1.22785	  0.00245	  0.35632	  0.79362	 -0.05559	  1.36640	704.45502	 22.30	
 17.009	-11.617	  1.17763	  1.24497	 -0.00521	  0.41901	  0.72753	 -0.05346	  1.36406	704.52301	 22.30	
 16.990	 -5.821	  1.18160	  1.26002	 -0.01252	  0.48246	  0.66319	 -0.05459	  1.36613	704.67499	 22.30	
 17.000	  0.000	  1.18049	  1.26221	 -0.01440	  0.54561	  0.59661	 -0.05483	  1.36307	704.51703	 22.30	
 16.990	  5.821	  1.18344	  1.26179	 -0.01000	  0.61552	  0.53289	 -0.05351	  1.36523	704.64099	 22.30	
 17.009	 11.617	  1.18750	  1.25445	 -0.00186	  0.68270	  0.47257	 -0.05414	  1.36719	704.47498	 22.30	
 17.000	 17.404	  1.18800	  1.23959	  0.00131	  0.74660	  0.40999	 -0.05676	  1.36829	704.54797	 22.30	
 16.990	 23.241	  1.19121	  1.21487	  0.02533	  0.81716	  0.35456	 -0.05655	  1.36895	704.61603	 22.30	
 16.995	 29.081	  1.19415	  1.18554	  0.04762	  0.88275	  0.30234	 -0.05650	  1.37112	704.57599	 22.30	
 16.988	 34.839	  1.19449	  1.14643	  0.07499	  0.94367	  0.25512	 -0.05793	  1.37017	704.68298	 22.30	
 17.014	 40.657	  1.19636	  1.10495	  0.10708	  1.00496	  0.20939	 -0.05908	  1.37153	704.38300	 22.20	
 17.007	 46.454	  1.19617	  1.05376	  0.14238	  1.05776	  0.16706	 -0.06116	  1.37117	704.61298	 22.30	
 17.001	 52.301	  1.19690	  0.99793	  0.18273	  1.10493	  0.13160	 -0.06154	  1.36875	704.61902	 22.20	
 17.006	 58.063	  1.20015	  0.94151	  0.22963	  1.15277	  0.10102	 -0.05847	  1.37246	704.53198	 22.20	
 17.002	 63.866	  1.19831	  0.87443	  0.28223	  1.18663	  0.07681	 -0.05988	  1.36898	704.58698	 22.20	
 17.001	 69.690	  1.20151	  0.81137	  0.33834	  1.21770	  0.05798	 -0.05971	  1.37148	704.53198	 22.20	
 16.988	 75.483	  1.19724	  0.74092	  0.39380	  1.23780	  0.03895	 -0.06212	  1.36730	704.54602	 22.20	
 17.012	 81.253	  1.19991	  0.67337	  0.45199	  1.25815	  0.02199	 -0.06443	  1.37128	704.52100	 22.20	
 16.996	 87.091	  1.20425	  0.60990	  0.52042	  1.26927	  0.02283	 -0.06370	  1.37528	704.48700	 22.20	
 16.996	 92.909	  1.19971	  0.53737	  0.58505	  1.26580	  0.01682	 -0.06494	  1.37150	704.52600	 22.20	
 17.008	 98.662	  1.19884	  0.47461	  0.65222	  1.25961	  0.02442	 -0.06283	  1.37085	704.53400	 22.20	
 16.988	104.517	  1.20254	  0.41183	  0.72527	  1.24637	  0.03789	 -0.06352	  1.37375	704.42999	 22.20	
 17.001	110.310	  1.20027	  0.35137	  0.79142	  1.22489	  0.05062	 -0.06230	  1.37241	704.58801	 22.20	
 17.002	116.134	  1.19946	  0.29285	  0.85747	  1.19497	  0.06909	 -0.06347	  1.37238	704.53400	 22.20	
 17.006	121.937	  1.19469	  0.23582	  0.91949	  1.15615	  0.09053	 -0.06459	  1.36918	704.54797	 22.20	
 17.001	127.699	  1.19741	  0.18979	  0.98229	  1.11730	  0.12194	 -0.06603	  1.37295	704.59399	 22.20	
 17.007	133.546	  1.19281	  0.14500	  1.03629	  1.06567	  0.15547	 -0.06499	  1.37003	704.39600	 22.20	
 17.014	139.343	  1.19527	  0.11061	  1.09229	  1.01423	  0.20042	 -0.06550	  1.37273	704.50098	 22.20	
 16.988	145.161	  1.19319	  0.07566	  1.13438	  0.95252	  0.24425	 -0.06719	  1.37119	704.46198	 22.20	
 16.995	150.919	  1.19249	  0.04949	  1.17580	  0.89327	  0.29267	 -0.06436	  1.37211	704.45502	 22.20	
 16.990	156.759	  1.18659	  0.02410	  1.20455	  0.82362	  0.34517	 -0.06474	  1.36707	704.46899	 22.20	
 17.000	162.596	  1.18581	  0.00902	  1.23137	  0.75798	  0.40425	 -0.06384	  1.36761	704.42999	 22.20	
 17.009	168.383	  1.18481	 -0.00536	  1.25023	  0.69054	  0.46388	 -0.06601	  1.36910	704.34802	 22.20	
 16.990	174.179	  1.18200	 -0.01487	  1.26001	  0.62094	  0.52523	 -0.06664	  1.36768	704.42700	 22.20	
 18.709	174.675	  1.13298	 -0.08829	  1.28545	  0.58648	  0.48786	 -0.06727	  1.36255	704.45300	 22.20	
 18.703	169.441	  1.13657	 -0.07822	  1.27769	  0.65268	  0.43102	 -0.06535	  1.36415	704.45502	 22.20	
 18.691	164.085	  1.13388	 -0.06751	  1.25754	  0.71922	  0.36824	 -0.06407	  1.36007	704.52899	 22.20	
 18.706	158.818	  1.13336	 -0.04852	  1.23208	  0.78475	  0.31369	 -0.06290	  1.35647	704.49200	 22.20	
 18.695	153.537	  1.13986	 -0.02699	  1.20724	  0.85223	  0.26346	 -0.06312	  1.36187	704.48297	 22.20	
 18.704	148.255	  1.14435	 -0.00059	  1.17336	  0.91673	  0.21653	 -0.06241	  1.36459	704.53802	 22.10	
 18.698	142.952	  1.15493	  0.02921	  1.14219	  0.98524	  0.16993	 -0.06281	  1.37597	704.51398	 22.10	
 18.699	137.625	  1.15312	  0.06478	  1.08990	  1.04038	  0.12829	 -0.06198	  1.37196	704.48602	 22.10	
 18.705	132.343	  1.15716	  0.10286	  1.04081	  1.09372	  0.09216	 -0.06252	  1.37579	704.45502	 22.10	
 18.713	127.067	  1.15698	  0.14484	  0.98218	  1.14057	  0.05758	 -0.06090	  1.37352	704.45502	 22.10	
 18.700	121.794	  1.15532	  0.19235	  0.92028	  1.17944	  0.03106	 -0.06296	  1.37096	704.49500	 22.10	
 18.698	116.504	  1.15752	  0.24265	  0.85756	  1.21677	  0.00684	 -0.05882	  1.37209	704.46198	 22.10	
 18.707	111.165	  1.16200	  0.29832	  0.79522	  1.25097	 -0.01424	 -0.05714	  1.37719	704.47601	 22.10	
 18.690	105.863	  1.15996	  0.35498	  0.72621	  1.26908	 -0.02781	 -0.05970	  1.37199	704.45898	 22.10	
 18.696	100.583	  1.16042	  0.41732	  0.65698	  1.28554	 -0.03982	 -0.05888	  1.37276	704.59100	 22.10	
 18.700	 95.309	  1.16294	  0.48268	  0.59196	  1.29543	 -0.04370	 -0.06164	  1.37372	704.52100	 22.10	
 18.700	 90.000	  1.16230	  0.54745	  0.52468	  1.29886	 -0.04739	 -0.05873	  1.37411	704.56299	 22.10	
 18.700	 84.691	  1.16095	  0.61246	  0.45956	  1.29274	 -0.04454	 -0.05904	  1.37218	704.39600	 22.10	
 18.696	 79.417	  1.15990	  0.67906	  0.39633	  1.28155	 -0.03896	 -0.05855	  1.37137	704.56299	 22.10	
 18.690	 74.137	  1.16047	  0.74517	  0.33759	  1.26513	 -0.02840	 -0.05957	  1.37175	704.46198	 22.10	
 18.707	 68.835	  1.16123	  0.81251	  0.28190	  1.24130	 -0.01104	 -0.05721	  1.37258	704.47803	 22.10	
 18.698	 63.496	  1.15797	  0.87584	  0.22718	  1.20856	  0.00782	 -0.05699	  1.36959	704.51099	 22.10	
 18.700	 58.206	  1.15779	  0.93946	  0.17756	  1.17289	  0.03262	 -0.05716	  1.37153	704.34100	 22.10	
 18.713	 52.933	  1.15914	  1.00193	  0.13076	  1.13270	  0.06058	 -0.05766	  1.37509	704.45001	 22.10	
 18.705	 47.657	  1.15676	  1.05621	  0.08771	  1.08183	  0.09329	 -0.05770	  1.37316	704.42401	 22.10	
 18.699	 42.375	  1.15599	  1.10669	  0.04970	  1.02990	  0.12897	 -0.05760	  1.37413	704.35101	 22.10	
 18.698	 37.048	  1.15712	  1.15493	  0.01733	  0.97350	  0.17239	 -0.05568	  1.37590	704.46100	 22.10	
 18.704	 31.745	  1.15480	  1.19774	 -0.01517	  0.91012	  0.21747	 -0.05258	  1.37670	704.34802	 22.10	
 18.695	 26.463	  1.15067	  1.22832	 -0.03848	  0.84725	  0.26490	 -0.04998	  1.37312	704.44202	 22.10	
 18.706	 21.182	  1.15102	  1.25901	 -0.05971	  0.78078	  0.31955	 -0.04972	  1.37553	704.54901	 22.00	
 18.691	 15.915	  1.15042	  1.28081	 -0.07434	  0.71441	  0.37727	 -0.05022	  1.37641	704.51703	 22.10	
 18.703	 10.559	  1.14472	  1.29279	 -0.08745	  0.64276	  0.43442	 -0.05222	  1.37253	704.53198	 22.00	
 18.709	  5.325	  1.14321	  1.29971	 -0.09379	  0.57706	  0.49542	 -0.04958	  1.37056	704.39600	 22.00	
 18.700	  0.000	  1.14316	  1.30269	 -0.09680	  0.51053	  0.56076	 -0.05104	  1.37257	704.29602	 22.00	
 18.709	 -5.325	  1.14454	  1.30055	 -0.09357	  0.44758	  0.62698	 -0.05138	  1.37579	704.44702	 22.00	
 18.703	-10.559	  1.13787	  1.28464	 -0.08904	  0.38313	  0.68849	 -0.04872	  1.37090	704.40802	 22.00	
 18.691	-15.915	  1.13893	  1.26807	 -0.07701	  0.32243	  0.75885	 -0.04917	  1.37150	704.48999	 22.00	
 18.706	-21.182	  1.13539	  1.24241	 -0.06162	  0.26531	  0.82193	 -0.05044	  1.37063	704.47601	 22.00	
 18.695	-26.463	  1.13588	  1.21221	 -0.04248	  0.21252	  0.88638	 -0.05156	  1.37225	704.49799	 22.00	
 18.704	-31.745	  1.13374	  1.17527	 -0.02011	  0.15963	  0.94920	 -0.05192	  1.37265	704.50000	 22.00	
 18.698	-37.048	  1.13082	  1.12802	  0.01040	  0.11548	  1.00689	 -0.05507	  1.36880	704.37402	 22.00	
 18.699	-42.375	  1.12987	  1.08128	  0.04358	  0.07308	  1.06350	 -0.05202	  1.37139	704.46100	 22.00	
 18.705	-47.657	  1.12833	  1.02736	  0.08225	  0.03625	  1.11347	 -0.05064	  1.36985	704.35199	 22.00	
 18.713	-52.933	  1.12455	  0.96762	  0.12275	  0.00200	  1.15860	 -0.04899	  1.36842	704.36798	 22.00	
 18.700	-58.206	  1.12509	  0.90718	  0.16817	 -0.02684	  1.20055	 -0.04852	  1.37095	704.39899	 22.00	
 18.698	-63.496	  1.12608	  0.84471	  0.21934	 -0.05042	  1.23592	 -0.05315	  1.37158	704.41101	 22.00	
 18.707	-68.835	  1.12135	  0.77606	  0.27216	 -0.07025	  1.26183	 -0.04782	  1.36798	704.41400	 22.00	
 18.690	-74.137	  1.12545	  0.71081	  0.33281	 -0.08463	  1.28724	 -0.05259	  1.37245	704.40698	 22.00	
 18.696	-79.417	  1.12085	  0.64119	  0.38960	 -0.09840	  1.30163	 -0.04929	  1.36981	704.39697	 22.00	
 18.700	-84.691	  1.12108	  0.57614	  0.44968	 -0.10739	  1.31331	 -0.05359	  1.37206	704.49200	 22.00	
 18.700	-90.000	  1.12047	  0.50906	  0.51720	 -0.10482	  1.31267	 -0.05349	  1.36950	704.53101	 22.00	
 18.700	-95.309	  1.11951	  0.44336	  0.58434	 -0.10204	  1.30888	 -0.05673	  1.37011	704.49200	 22.00	
 18.696	-100.583	  1.11823	  0.38091	  0.65017	 -0.09597	  1.29734	 -0.05759	  1.36865	704.38300	 22.00	
 18.690	-105.863	  1.11861	  0.32195	  0.71718	 -0.08503	  1.28168	 -0.06007	  1.36941	704.58502	 22.00	
 18.707	-111.165	  1.11744	  0.26246	  0.78347	 -0.07143	  1.25890	 -0.06298	  1.36897	704.35999	 22.00	
 18.698	-116.504	  1.12103	  0.20845	  0.85275	 -0.04996	  1.23204	 -0.06223	  1.37267	704.43799	 22.00	
 18.700	-121.794	  1.12162	  0.16125	  0.91535	 -0.02490	  1.19751	 -0.06371	  1.37299	704.30902	 22.00	
 18.713	-127.067	  1.12307	  0.11892	  0.97497	  0.00529	  1.15702	 -0.06494	  1.37355	704.42798	 22.00	
 18.705	-132.343	  1.12391	  0.07392	  1.03492	  0.04009	  1.10839	 -0.06573	  1.37323	704.42102	 22.00	
 18.699	-137.625	  1.12336	  0.04105	  1.08406	  0.07854	  1.05561	 -0.06532	  1.37004	704.51398	 22.00	
 18.698	-142.952	  1.12707	  0.00854	  1.13540	  0.12186	  1.00273	 -0.06517	  1.37316	704.46100	 22.00	
 18.704	-148.255	  1.12584	 -0.01607	  1.17395	  0.16993	  0.94108	 -0.06310	  1.36907	704.48999	 22.00	
 18.695	-153.537	  1.12759	 -0.04199	  1.21302	  0.22055	  0.87692	 -0.06428	  1.36948	704.35797	 22.00	
 18.706	-158.818	  1.12921	 -0.06076	  1.24327	  0.27414	  0.81386	 -0.06329	  1.37031	704.35999	 22.00	
 18.691	-164.085	  1.13422	 -0.07361	  1.26918	  0.33371	  0.75090	 -0.06457	  1.37402	704.36798	 22.00	
 18.703	-169.441	  1.13052	 -0.08371	  1.28025	  0.39328	  0.68069	 -0.06518	  1.36731	704.31000	 22.00	
 18.709	-174.675	  1.13292	 -0.08876	  1.29045	  0.45527	  0.61712	 -0.06534	  1.36726	704.40503	 22.00	
 18.700	180.000	  1.14034	 -0.08811	  1.29826	  0.52243	  0.55543	 -0.06562	  1.37232	704.38300	 22.00	
 20.400	180.000	  1.08393	 -0.17816	  1.32086	  0.47572	  0.50861	 -0.06481	  1.36809	704.38300	 22.00	
 20.401	-175.153	  1.08058	 -0.17682	  1.31554	  0.41192	  0.57075	 -0.06311	  1.36681	704.39099	 22.00	
 20.407	-170.264	  1.08407	 -0.17357	  1.31347	  0.35078	  0.63957	 -0.06098	  1.37351	704.36902	 22.00	
 20.410	-165.423	  1.08204	 -0.16558	  1.29973	  0.29022	  0.70573	 -0.05885	  1.37492	704.31702	 22.00	
 20.392	-160.496	  1.08005	 -0.15205	  1.27664	  0.22942	  0.77368	 -0.06023	  1.37443	704.30902	 22.00	
 20.401	-155.705	  1.07518	 -0.13645	  1.24449	  0.17436	  0.83416	 -0.06278	  1.37016	704.24200	 22.00	
 20.405	-150.835	  1.06899	 -0.11729	  1.20786	  0.12010	  0.89539	 -0.06363	  1.36608	704.31000	 22.00	
 20.397	-145.903	  1.06937	 -0.09139	  1.16890	  0.07318	  0.95800	 -0.06203	  1.36723	704.43799	 22.00	
 20.392	-141.062	  1.07008	 -0.06395	  1.12627	  0.03004	  1.01630	 -0.06328	  1.36912	704.36902	 22.00	
 20.396	-136.227	  1.06840	 -0.03207	  1.07716	 -0.01202	  1.07247	 -0.06384	  1.37039	704.41400	 22.00	
 20.408	-131.372	  1.07012	  0.00373	  1.02705	 -0.04704	  1.12498	 -0.06284	  1.37434	704.32098	 22.00	
 20.410	-126.511	  1.06778	  0.04292	  0.96777	 -0.08181	  1.17098	 -0.06479	  1.37285	704.33502	 22.00	
 20.400	-121.604	  1.06769	  0.08964	  0.90523	 -0.10900	  1.21199	 -0.06048	  1.37223	704.30402	 22.00	
 20.403	-116.741	  1.06644	  0.13898	  0.84014	 -0.13361	  1.24795	 -0.05801	  1.37292	704.32098	 22.00	
 20.413	-111.900	  1.06422	  0.18895	  0.77341	 -0.15665	  1.27635	 -0.05692	  1.37052	704.30103	 22.00	
 20.398	-107.004	  1.06748	  0.24721	  0.71005	 -0.16867	  1.30252	 -0.05646	  1.37369	704.27197	 22.00	
 20.394	-102.132	  1.06676	  0.30417	  0.64156	 -0.18289	  1.32049	 -0.05479	  1.37433	704.33398	 22.00	
 20.403	-97.332	  1.06565	  0.36446	  0.57357	 -0.19262	  1.33112	 -0.05243	  1.37194	704.41901	 22.00	
 20.392	-92.440	  1.06818	  0.42937	  0.50704	 -0.19803	  1.34030	 -0.04835	  1.37478	704.32703	 22.00	
 20.392	-87.560	  1.06759	  0.49468	  0.44090	 -0.19660	  1.33874	 -0.04764	  1.37326	704.37402	 22.00	
 20.403	-82.668	  1.06620	  0.56186	  0.37470	 -0.19262	  1.33176	 -0.04649	  1.37044	704.28101	 22.00	
 20.394	-77.868	  1.06533	  0.62663	  0.31366	 -0.18519	  1.31852	 -0.04489	  1.36776	704.41400	 22.00	
 20.398	-72.996	  1.07126	  0.69707	  0.25766	 -0.17248	  1.30655	 -0.04561	  1.37373	704.33398	 22.00	
 20.413	-68.100	  1.06988	  0.76540	  0.20061	 -0.15504	  1.28121	 -0.04450	  1.37056	704.36499	 22.00	
 20.403	-63.259	  1.07146	  0.83024	  0.14873	 -0.13631	  1.25245	 -0.04765	  1.37141	704.32703	 22.00	
 20.400	-58.396	  1.07535	  0.89766	  0.09912	 -0.11255	  1.22060	 -0.04550	  1.37421	704.31201	 22.00	
 20.410	-53.489	  1.07522	  0.95990	  0.05240	 -0.08548	  1.17947	 -0.04524	  1.37355	704.41400	 22.00	
 20.408	-48.628	  1.07589	  1.01668	  0.01230	 -0.05366	  1.13296	 -0.04447	  1.37240	704.40002	 22.00	
 20.396	-43.773	  1.07815	  1.07320	 -0.02611	 -0.01804	  1.08207	 -0.04705	  1.37260	704.42401	 22.00	
 20.392	-38.938	  1.07740	  1.12122	 -0.05771	  0.02419	  1.02481	 -0.04522	  1.36883	704.28198	 22.00	
 20.397	-34.097	  1.07794	  1.16663	 -0.08770	  0.06667	  0.96798	 -0.04697	  1.36902	704.32898	 22.00	
 20.405	-29.165	  1.08185	  1.21125	 -0.11652	  0.11303	  0.90836	 -0.04844	  1.37380	704.37598	 22.00	
 20.401	-24.295	  1.08453	  1.24691	 -0.13688	  0.16567	  0.84572	 -0.04444	  1.37347	704.32397	 22.00	
 20.392	-19.504	  1.08307	  1.27184	 -0.15342	  0.21888	  0.77844	 -0.04774	  1.36944	704.30298	 22.00	
 20.410	-14.577	  1.08557	  1.29690	 -0.16827	  0.27813	  0.71197	 -0.04635	  1.37027	704.35797	 22.00	
 20.407	 -9.736	  1.08660	  1.31241	 -0.17953	  0.33796	  0.64435	 -0.04660	  1.37093	704.36798	 22.00	
 20.401	 -4.847	  1.08942	  1.32425	 -0.18388	  0.40264	  0.57920	 -0.04575	  1.37233	704.39697	 22.00	
 20.400	  0.000	  1.09449	  1.33141	 -0.18332	  0.46752	  0.51816	 -0.04650	  1.37586	704.39301	 22.00	
 20.401	  4.847	  1.09053	  1.32642	 -0.18326	  0.53182	  0.45019	 -0.04345	  1.37184	704.35101	 22.00	
 20.407	  9.736	  1.09117	  1.31664	 -0.17332	  0.59896	  0.39026	 -0.04370	  1.36858	704.36798	 22.00	
 20.410	 14.577	  1.09279	  1.30368	 -0.16413	  0.66697	  0.32990	 -0.04157	  1.36876	704.34497	 22.00	
 20.392	 19.504	  1.09725	  1.28847	 -0.15200	  0.73592	  0.27275	 -0.04179	  1.37369	704.33698	 22.00	
 20.401	 24.295	  1.09641	  1.26089	 -0.13283	  0.79918	  0.22090	 -0.04412	  1.37002	704.43799	 22.00	
 20.405	 29.165	  1.09648	  1.22728	 -0.11097	  0.86350	  0.16906	 -0.04590	  1.36922	704.31702	 22.00	
 20.397	 34.097	  1.10022	  1.19214	 -0.08630	  0.92949	  0.12149	 -0.04906	  1.37285	704.40503	 22.00	
 20.392	 38.938	  1.10494	  1.15179	 -0.05280	  0.99214	  0.08108	 -0.05066	  1.37575	704.29303	 22.00	
 20.396	 43.773	  1.10458	  1.10166	 -0.01960	  1.04769	  0.04209	 -0.05398	  1.37299	704.40698	 22.00	
 20.408	 48.628	  1.10479	  1.04874	  0.01654	  1.10064	  0.00336	 -0.05351	  1.37288	704.29797	 22.00	
 20.410	 53.489	  1.10356	  0.98911	  0.05949	  1.14585	 -0.02730	 -0.05371	  1.36911	704.34900	 22.00	
 20.400	 58.396	  1.10951	  0.93430	  0.10586	  1.19320	 -0.05364	 -0.05365	  1.37601	704.41101	 22.00	
 20.403	 63.259	  1.10722	  0.87043	  0.15158	  1.22682	 -0.07812	 -0.05378	  1.37224	704.30402	 22.00	
 20.413	 68.100	  1.10614	  0.80287	  0.20660	  1.25545	 -0.09549	 -0.05419	  1.36927	704.30402	 22.00	
 20.398	 72.996	  1.11262	  0.74023	  0.26292	  1.28742	 -0.11253	 -0.05293	  1.37644	704.47498	 22.00	
 20.394	 77.868	  1.11238	  0.67090	  0.32202	  1.30649	 -0.12536	 -0.05440	  1.37547	704.39899	 22.00	
 20.403	 82.668	  1.11216	  0.60674	  0.38416	  1.31744	 -0.12978	 -0.05309	  1.37371	704.34100	 22.00	
 20.392	 87.560	  1.11075	  0.53712	  0.44611	  1.32279	 -0.13667	 -0.05128	  1.37273	704.43597	 22.00	
 20.392	 92.440	  1.11088	  0.47309	  0.51326	  1.32328	 -0.13433	 -0.05248	  1.37264	704.44501	 22.00	
 20.403	 97.332	  1.10864	  0.40661	  0.57889	  1.31679	 -0.13109	 -0.05243	  1.36990	704.34100	 22.00	
 20.394	102.132	  1.11159	  0.34771	  0.64596	  1.30981	 -0.12433	 -0.05003	  1.37537	704.35199	 22.00	
 20.398	107.004	  1.11235	  0.28589	  0.71656	  1.29333	 -0.11248	 -0.05022	  1.37668	704.34302	 22.00	
 20.413	111.900	  1.11241	  0.22967	  0.78349	  1.26984	 -0.09646	 -0.05584	  1.37793	704.27899	 22.00	
 20.403	116.741	  1.10843	  0.17551	  0.84630	  1.23717	 -0.07727	 -0.05482	  1.37386	704.41400	 22.00	
 20.400	121.604	  1.10322	  0.12491	  0.90730	  1.19673	 -0.05416	 -0.05368	  1.36879	704.38501	 22.00	
 20.410	126.511	  1.10624	  0.07678	  0.97228	  1.15831	 -0.02595	 -0.05907	  1.37346	704.39001	 21.90	
 20.408	131.372	  1.10559	  0.03461	  1.03168	  1.11268	  0.00451	 -0.05768	  1.37440	704.19299	 21.90	
 20.396	136.227	  1.10577	 -0.00509	  1.08670	  1.06097	  0.03984	 -0.06125	  1.37520	704.38300	 22.00	
 20.392	141.062	  1.10314	 -0.03736	  1.13422	  1.00382	  0.08040	 -0.05709	  1.37322	704.26501	 21.90	
 20.397	145.903	  1.10272	 -0.06915	  1.18012	  0.94403	  0.12269	 -0.05902	  1.37455	704.38000	 22.00	
 20.405	150.835	  1.10031	 -0.09584	  1.21884	  0.88002	  0.17060	 -0.06352	  1.37338	704.38000	 21.90	
 20.401	155.705	  1.10248	 -0.11856	  1.25462	  0.81966	  0.21901	 -0.05866	  1.37761	704.39697	 21.90	
 20.392	160.496	  1.09864	 -0.13758	  1.28077	  0.75186	  0.27181	 -0.06192	  1.37541	704.35199	 21.90	
 20.410	165.423	  1.09657	 -0.15764	  1.30296	  0.68128	  0.32673	 -0.06434	  1.37609	704.38300	 21.90	
 20.407	170.264	  1.09395	 -0.16571	  1.31666	  0.61504	  0.38628	 -0.06084	  1.37530	704.38202	 21.90	
 20.401	175.153	  1.09608	 -0.17417	  1.32920	  0.54959	  0.44866	 -0.06240	  1.38012	704.29797	 21.90	
  0.141	 45.000	  1.38205	  0.73301	  0.73474	  0.73602	  0.75764	  0.00584	  1.37347	704.34497	 21.90	
  4.001	128.691	  1.37981	  0.62903	  0.82076	  0.84186	  0.63714	  0.00052	  1.37396	704.31201	 21.90	
  4.002	 76.995	  1.37843	  0.76061	  0.68260	  0.87413	  0.60854	  0.00099	  1.37290	704.41302	 21.90	
  4.002	 25.892	  1.37785	  0.87217	  0.58290	  0.78193	  0.68659	  0.00032	  1.37273	704.21600	 21.90	
  4.002	-25.892	  1.38312	  0.87345	  0.58371	  0.64574	  0.82913	 -0.00176	  1.38082	704.30902	 21.90	
  4.002	-76.995	  1.37978	  0.75737	  0.68326	  0.56705	  0.91644	 -0.00252	  1.37808	704.38300	 21.90	
  4.001	-128.691	  1.38067	  0.62210	  0.82380	  0.59640	  0.88346	 -0.00164	  1.37947	704.29797	 21.90	
  4.000	180.000	  1.38123	  0.57269	  0.88679	  0.71571	  0.75441	  0.00052	  1.37863	704.36603	 21.90	
  8.000	180.000	  1.35208	  0.38724	  1.03108	  0.68422	  0.72333	 -0.01546	  1.37716	704.39899	 21.90	
  7.991	-152.370	  1.35211	  0.41570	  0.99477	  0.53828	  0.87689	 -0.01576	  1.38193	704.34003	 21.90	
  7.997	-124.550	  1.34519	  0.50670	  0.87740	  0.42571	  0.99941	 -0.02025	  1.37614	704.13202	 21.90	
  8.006	-96.837	  1.34083	  0.64353	  0.72406	  0.37717	  1.05528	 -0.02218	  1.37316	704.24103	 21.90	
  7.988	-69.228	  1.34207	  0.80056	  0.57301	  0.39491	  1.03569	 -0.02382	  1.37232	704.21100	 21.90	
  7.997	-41.563	  1.34548	  0.93962	  0.45493	  0.47203	  0.94604	 -0.02075	  1.37401	704.21698	 21.90	
  8.008	-13.821	  1.34622	  1.02204	  0.38793	  0.59931	  0.80205	 -0.01995	  1.37274	704.40698	 21.90	
  8.008	 13.821	  1.35396	  1.02795	  0.39088	  0.75932	  0.64933	 -0.01794	  1.37614	704.23401	 21.90	
  7.997	 41.563	  1.35279	  0.94950	  0.45529	  0.90248	  0.51997	 -0.01480	  1.37226	704.19397	 21.90	
  7.988	 69.228	  1.36014	  0.81902	  0.57530	  1.00444	  0.44362	 -0.01515	  1.37766	704.23901	 21.90	
  8.006	 96.837	  1.35554	  0.65830	  0.72706	  1.02329	  0.42555	 -0.01654	  1.37414	704.14801	 21.90	
  7.997	124.550	  1.35421	  0.51897	  0.87692	  0.96427	  0.47242	 -0.01506	  1.37339	704.06702	 21.90	
  7.991	152.370	  1.35172	  0.42294	  0.98850	  0.83864	  0.57641	 -0.01560	  1.37364	704.25500	 21.90	
 12.009	161.059	  1.29452	  0.22053	  1.12369	  0.79563	  0.51761	 -0.03811	  1.37219	704.17102	 21.90	
 12.013	142.081	  1.29822	  0.28614	  1.04147	  0.94702	  0.38916	 -0.03909	  1.37329	704.31799	 21.90	
 12.006	123.113	  1.29990	  0.39240	  0.91319	  1.06292	  0.29889	 -0.03920	  1.37241	704.31799	 21.90	
 12.007	104.200	  1.30326	  0.53144	  0.75884	  1.13463	  0.24555	 -0.04238	  1.37378	704.18799	 21.90	
 11.989	 85.301	  1.30397	  0.69214	  0.59596	  1.14663	  0.23697	 -0.03918	  1.37347	704.24402	 21.90	
 12.013	 66.294	  1.30168	  0.85093	  0.44680	  1.10169	  0.26761	 -0.03934	  1.37181	704.21100	 21.90	
 12.012	 47.388	  1.30062	  0.99302	  0.32729	  1.00131	  0.34401	 -0.03772	  1.37110	704.20599	 21.90	
 11.990	 28.440	  1.29753	  1.09696	  0.24183	  0.86548	  0.45446	 -0.03850	  1.37172	704.18597	 21.90	
 11.991	  9.464	  1.29218	  1.14851	  0.19811	  0.70574	  0.59532	 -0.04037	  1.36924	704.21100	 21.90	
 11.991	 -9.464	  1.29251	  1.14777	  0.19840	  0.54857	  0.75408	 -0.04143	  1.37423	704.23901	 21.90	
 11.990	-28.440	  1.28654	  1.08554	  0.24002	  0.40341	  0.90906	 -0.04320	  1.37177	704.25098	 21.90	
 12.012	-47.388	  1.28142	  0.97403	  0.32366	  0.29062	  1.04023	 -0.04488	  1.37092	704.19897	 21.90	
 12.013	-66.294	  1.28373	  0.83229	  0.44517	  0.21712	  1.13750	 -0.04983	  1.37616	704.25897	 21.90	
 11.989	-85.301	  1.28227	  0.66985	  0.59422	  0.18768	  1.17636	 -0.05086	  1.37435	704.25800	 21.90	
 12.007	-104.200	  1.27894	  0.51176	  0.75512	  0.19796	  1.15979	 -0.04589	  1.37282	704.25800	 21.90	
 12.006	-123.113	  1.28020	  0.37591	  0.90992	  0.25179	  1.09047	 -0.04179	  1.37292	704.30103	 21.90	
 12.013	-142.081	  1.28104	  0.27425	  1.03622	  0.34770	  0.97354	 -0.03873	  1.37137	704.38501	 21.90	
 12.009	-161.059	  1.28758	  0.21318	  1.12328	  0.47961	  0.82795	 -0.04077	  1.37453	704.25800	 21.90	
 16.000	180.000	  1.20574	  0.01839	  1.24640	  0.56940	  0.60276	 -0.06255	  1.37018	704.21899	 21.90	
 15.990	-165.604	  1.20596	  0.03302	  1.22901	  0.41967	  0.76238	 -0.06479	  1.37622	704.15997	 21.90	
 16.002	-151.165	  1.19914	  0.07698	  1.16148	  0.28419	  0.91384	 -0.06192	  1.37244	704.28998	 21.90	
 16.002	-136.836	  1.19648	  0.14716	  1.05865	  0.17173	  1.05125	 -0.06267	  1.37362	704.34302	 21.90	
 15.995	-122.439	  1.19368	  0.25258	  0.92283	  0.09257	  1.15931	 -0.06383	  1.37189	704.43103	 21.90	
 15.993	-107.966	  1.19355	  0.37928	  0.77118	  0.04056	  1.23277	 -0.06531	  1.37182	704.24799	 21.90	
 16.005	-93.629	  1.19339	  0.52546	  0.61169	  0.01325	  1.26828	 -0.06314	  1.37391	704.32001	 21.90	
 15.992	-79.234	  1.19542	  0.68338	  0.45877	  0.02072	  1.25817	 -0.05983	  1.37355	704.31000	 21.90	
 16.009	-64.774	  1.20121	  0.84532	  0.32024	  0.05952	  1.21036	 -0.05812	  1.37783	704.23901	 21.90	
 15.997	-50.364	  1.20089	  0.99003	  0.20156	  0.12294	  1.11732	 -0.05865	  1.37447	704.27502	 21.90	
 15.997	-36.045	  1.20513	  1.11169	  0.11590	  0.21985	  0.99576	 -0.05859	  1.37505	704.22998	 21.90	
 16.000	-21.597	  1.20933	  1.19977	  0.05687	  0.34556	  0.84881	 -0.05458	  1.37480	704.16803	 21.90	
 16.003	 -7.169	  1.20851	  1.24490	  0.02031	  0.48397	  0.68789	 -0.05545	  1.37175	704.12299	 21.90	
 16.003	  7.169	  1.21253	  1.24941	  0.02237	  0.64215	  0.53516	 -0.05636	  1.37220	704.17902	 21.90	
 16.000	 21.597	  1.21693	  1.20884	  0.05462	  0.80291	  0.39224	 -0.05557	  1.37212	704.20300	 21.90	
 15.997	 36.045	  1.21995	  1.12911	  0.11177	  0.95335	  0.26917	 -0.05884	  1.37349	704.11200	 21.90	
 15.997	 50.364	  1.22213	  1.01245	  0.20005	  1.08191	  0.17138	 -0.05681	  1.37271	704.19897	 21.90	
 16.009	 64.774	  1.22615	  0.87061	  0.31595	  1.17861	  0.10267	 -0.05735	  1.37416	704.17200	 21.90	
 15.992	 79.234	  1.22559	  0.70968	  0.45413	  1.23398	  0.06358	 -0.05888	  1.37358	704.22498	 22.00	
 16.005	 93.629	  1.22067	  0.54735	  0.60755	  1.24364	  0.05282	 -0.06049	  1.36978	704.22400	 21.90	
 15.993	107.966	  1.22210	  0.39948	  0.76926	  1.21370	  0.07673	 -0.05955	  1.37084	704.28900	 21.90	
 15.995	122.439	  1.22515	  0.26695	  0.92750	  1.14342	  0.12879	 -0.06212	  1.37637	704.15399	 21.90	
 16.002	136.836	  1.22087	  0.16028	  1.06154	  1.02905	  0.21230	 -0.05990	  1.37332	704.44202	 21.90	
 16.002	151.165	  1.21443	  0.08316	  1.16142	  0.88828	  0.31884	 -0.06010	  1.37106	704.17200	 21.90	
 15.990	165.604	  1.21188	  0.03512	  1.22559	  0.73066	  0.45273	 -0.06153	  1.37221	704.29797	 21.90	
 20.003	168.362	  1.10621	 -0.14021	  1.30275	  0.64809	  0.37579	 -0.06203	  1.37268	704.22400	 21.90	
 20.008	156.764	  1.11196	 -0.10456	  1.25594	  0.80738	  0.24504	 -0.06031	  1.37545	704.22699	 21.90	
 20.000	145.147	  1.11301	 -0.04598	  1.16790	  0.95412	  0.13159	 -0.05840	  1.37142	704.14600	 21.90	
 19.995	133.545	  1.11717	  0.03587	  1.05458	  1.08681	  0.03953	 -0.05975	  1.37295	704.21100	 21.90	
 20.009	121.926	  1.12266	  0.13972	  0.92153	  1.19564	 -0.03081	 -0.05496	  1.37440	704.04700	 21.90	
 20.005	110.327	  1.11916	  0.26086	  0.76477	  1.26764	 -0.08141	 -0.05374	  1.37064	704.24701	 21.90	
 19.989	 98.733	  1.12248	  0.40130	  0.60918	  1.30771	 -0.10545	 -0.05397	  1.37115	704.13000	 21.90	
 19.999	 87.075	  1.12266	  0.55428	  0.45248	  1.31618	 -0.11344	 -0.05374	  1.37305	704.13397	 21.90	
 19.992	 75.457	  1.12432	  0.71035	  0.30850	  1.29059	 -0.09711	 -0.05582	  1.37354	704.14801	 21.90	
 20.009	 63.844	  1.12184	  0.86430	  0.17823	  1.22626	 -0.05751	 -0.05340	  1.37150	704.09198	 21.90	
 19.989	 52.269	  1.12210	  1.00936	  0.06825	  1.13586	  0.00242	 -0.05603	  1.37567	703.98602	 21.90	
 19.999	 40.602	  1.11542	  1.13085	 -0.02364	  1.00922	  0.08406	 -0.05586	  1.37184	704.10901	 21.90	
 20.004	 29.051	  1.11013	  1.22434	 -0.09130	  0.86749	  0.18588	 -0.04799	  1.37089	704.18500	 21.90	
 20.005	 17.433	  1.10860	  1.29087	 -0.13730	  0.71396	  0.31044	 -0.04420	  1.37271	704.17499	 21.90	
 20.006	  5.780	  1.10283	  1.31735	 -0.15908	  0.55380	  0.45107	 -0.04378	  1.36888	704.28699	 21.90	
 20.006	 -5.780	  1.10264	  1.31788	 -0.16212	  0.40171	  0.60202	 -0.04719	  1.37300	704.25500	 21.90	
 20.005	-17.433	  1.09538	  1.27747	 -0.14129	  0.25724	  0.75622	 -0.04513	  1.37005	704.31201	 21.90	
 20.004	-29.051	  1.09818	  1.21302	 -0.09548	  0.13377	  0.91183	 -0.04719	  1.37695	704.12097	 21.90	
 19.999	-40.602	  1.09120	  1.10542	 -0.02990	  0.02759	  1.04474	 -0.04773	  1.37200	704.17999	 21.90	
 19.989	-52.269	  1.08733	  0.97499	  0.05974	 -0.05775	  1.16345	 -0.04653	  1.37084	704.55200	 21.90	
 20.009	-63.844	  1.08490	  0.82800	  0.16842	 -0.12007	  1.25260	 -0.04682	  1.37232	705.31097	 21.90	
 19.992	-75.457	  1.08378	  0.67231	  0.30106	 -0.15475	  1.30866	 -0.04452	  1.37154	704.11200	 21.90	
 19.999	-87.075	  1.08101	  0.51118	  0.44783	 -0.17332	  1.33117	 -0.04935	  1.37197	704.28101	 21.90	
 19.989	-98.733	  1.08058	  0.36043	  0.60257	 -0.16748	  1.32226	 -0.05450	  1.37253	704.31403	 21.90	
 20.005	-110.327	  1.08127	  0.22503	  0.75899	 -0.13930	  1.28336	 -0.05932	  1.37391	704.20801	 21.90	
 20.009	-121.926	  1.08182	  0.10618	  0.91097	 -0.08772	  1.20857	 -0.06158	  1.37380	704.17999	 21.90	
 19.995	-133.545	  1.08456	  0.00893	  1.04965	 -0.01167	  1.10344	 -0.06489	  1.37384	704.19098	 21.90	
 20.000	-145.147	  1.08559	 -0.06625	  1.16258	  0.08509	  0.97140	 -0.06321	  1.37123	705.29901	 21.90	
 20.008	-156.764	  1.09324	 -0.12054	  1.25314	  0.20289	  0.82891	 -0.06167	  1.37621	704.21698	 21.90	
 20.003	-168.362	  1.09549	 -0.14578	  1.30050	  0.34099	  0.67320	 -0.06075	  1.37247	705.31403	 21.90	
 20.000	180.000	  1.09817	 -0.15440	  1.31647	  0.49063	  0.52057	 -0.06000	  1.36987	704.03101	 21.90	
