FileType=PCF
NHL=14
Date=08/30/17	11:40:08
Facility=APL
Serial=16328-18
Customer=NASA
NP=6
Mach=0.050000
Calibration=1:1
CalPts=490
TstPts=95
PortNumbering=AP Standard
Units=Torr C m/s kg/m^3 deg mm 
Theta[deg]	Phi[deg]	P1[Torr]	P2[Torr]	P3[Torr]	P4[Torr]	P5[Torr]	P6[Torr]	Pt[Torr]	Ps[Abs,Torr]	Ts[C]	
  0.000	  0.000	  1.28431	  0.67785	  0.65924	  0.67710	  0.67306	  0.00928	  1.27364	706.39502	 23.90	
  1.691	128.401	  1.28072	  0.64569	  0.68349	  0.70761	  0.63139	  0.00888	  1.27144	706.46198	 23.90	
  1.692	 77.194	  1.27789	  0.68606	  0.63662	  0.71673	  0.62118	  0.00995	  1.26979	706.58301	 23.90	
  1.699	 26.182	  1.28085	  0.73035	  0.60017	  0.68597	  0.64742	  0.00841	  1.27162	706.57202	 23.90	
  1.699	-26.182	  1.27882	  0.72880	  0.59832	  0.63354	  0.70070	  0.00746	  1.26934	706.62201	 23.90	
  1.692	-77.194	  1.27819	  0.68704	  0.63363	  0.60655	  0.73348	  0.00681	  1.26858	706.52399	 23.90	
  1.691	-128.401	  1.27903	  0.63893	  0.68541	  0.61491	  0.72321	  0.00734	  1.26920	706.56299	 23.90	
  1.700	180.000	  1.27985	  0.62003	  0.70997	  0.66173	  0.67345	  0.00800	  1.26998	706.40900	 23.90	
  3.400	180.000	  1.28229	  0.55316	  0.77729	  0.65804	  0.67114	  0.00445	  1.27347	706.44299	 23.90	
  3.388	-152.325	  1.27749	  0.56266	  0.75935	  0.59861	  0.72886	  0.00412	  1.26968	706.56403	 23.90	
  3.397	-124.529	  1.28186	  0.60076	  0.71962	  0.55786	  0.77981	  0.00410	  1.27343	706.52899	 23.90	
  3.399	-96.763	  1.28168	  0.65623	  0.66144	  0.53941	  0.80311	  0.00281	  1.27455	706.61200	 23.90	
  3.394	-69.283	  1.27910	  0.71524	  0.60146	  0.54520	  0.79326	  0.00346	  1.27191	706.51801	 23.90	
  3.400	-41.398	  1.28145	  0.76908	  0.55525	  0.57653	  0.75774	  0.00379	  1.27444	706.56702	 24.00	
  3.401	-14.021	  1.27695	  0.79645	  0.52830	  0.62280	  0.70075	  0.00479	  1.27080	706.61102	 24.00	
  3.401	 14.021	  1.27850	  0.79858	  0.52790	  0.68480	  0.63935	  0.00532	  1.27167	706.62903	 23.90	
  3.400	 41.398	  1.27794	  0.76826	  0.55324	  0.73870	  0.58891	  0.00658	  1.27133	706.61102	 23.90	
  3.394	 69.283	  1.27740	  0.71570	  0.59964	  0.77474	  0.55952	  0.00752	  1.27044	706.66498	 24.00	
  3.399	 96.763	  1.27851	  0.65681	  0.65667	  0.78356	  0.55456	  0.00662	  1.27104	706.58899	 23.90	
  3.397	124.529	  1.27812	  0.60458	  0.71376	  0.76206	  0.57243	  0.00645	  1.27067	706.63599	 23.90	
  3.388	152.325	  1.28160	  0.56914	  0.75945	  0.71748	  0.61381	  0.00636	  1.27328	706.63098	 24.00	
  5.099	161.165	  1.27813	  0.49235	  0.82803	  0.71426	  0.60203	  0.00011	  1.27504	706.50098	 24.00	
  5.109	142.013	  1.26991	  0.51735	  0.78860	  0.76801	  0.54510	  0.00001	  1.26612	706.48199	 24.00	
  5.095	123.033	  1.27701	  0.56516	  0.74221	  0.81605	  0.51081	  0.00198	  1.27308	706.51202	 24.00	
  5.105	104.191	  1.27580	  0.61915	  0.68081	  0.84246	  0.48770	  0.00201	  1.27355	706.36902	 24.00	
  5.093	 85.207	  1.27199	  0.67993	  0.61595	  0.84449	  0.48197	  0.00252	  1.27027	706.59100	 24.00	
  5.104	 66.290	  1.27394	  0.74412	  0.55857	  0.82959	  0.49581	  0.00423	  1.27437	706.55701	 24.00	
  5.094	 47.331	  1.26948	  0.79653	  0.50722	  0.78945	  0.52508	  0.00270	  1.26864	706.62201	 24.00	
  5.089	 28.397	  1.27109	  0.83879	  0.47278	  0.73849	  0.57200	  0.00110	  1.27194	706.61401	 24.00	
  5.096	  9.576	  1.26982	  0.86044	  0.45390	  0.67649	  0.62976	  0.00054	  1.27129	706.53302	 24.00	
  5.096	 -9.576	  1.27012	  0.86012	  0.45447	  0.61206	  0.69550	 -0.00086	  1.27174	706.42200	 24.00	
  5.089	-28.397	  1.27101	  0.83709	  0.47437	  0.55647	  0.75690	 -0.00192	  1.27258	706.36298	 24.00	
  5.094	-47.331	  1.26751	  0.79297	  0.50889	  0.50877	  0.80746	 -0.00319	  1.26747	706.46503	 24.00	
  5.104	-66.290	  1.27241	  0.74017	  0.56055	  0.47883	  0.84872	 -0.00380	  1.27177	706.62299	 24.00	
  5.093	-85.207	  1.27683	  0.67901	  0.62294	  0.46711	  0.86833	 -0.00368	  1.27530	706.54303	 24.00	
  5.105	-104.191	  1.27454	  0.61414	  0.68610	  0.47098	  0.86084	 -0.00329	  1.27190	706.60602	 24.00	
  5.095	-123.033	  1.27119	  0.55717	  0.74500	  0.49389	  0.83099	 -0.00232	  1.26914	706.58002	 24.00	
  5.109	-142.013	  1.27619	  0.51539	  0.79712	  0.53506	  0.78739	 -0.00145	  1.27256	706.53497	 24.00	
  5.099	-161.165	  1.27412	  0.48783	  0.82750	  0.58759	  0.72691	 -0.00125	  1.26980	706.49597	 24.00	
  5.100	180.000	  1.27577	  0.48021	  0.83929	  0.64942	  0.66392	 -0.00046	  1.27223	706.58899	 24.00	
  6.800	180.000	  1.26755	  0.40678	  0.89939	  0.63930	  0.65356	 -0.00684	  1.27398	706.56299	 24.00	
  6.796	-166.229	  1.26509	  0.41141	  0.89082	  0.57739	  0.71521	 -0.00837	  1.27119	706.50098	 24.00	
  6.808	-152.311	  1.26224	  0.42903	  0.86561	  0.51949	  0.77441	 -0.00864	  1.26885	706.61902	 24.00	
  6.795	-138.383	  1.25884	  0.45961	  0.82542	  0.46910	  0.82811	 -0.00821	  1.26613	706.59998	 24.00	
  6.792	-124.591	  1.26035	  0.50329	  0.77735	  0.43235	  0.87436	 -0.00921	  1.26796	706.56299	 24.00	
  6.787	-110.754	  1.26235	  0.55717	  0.72082	  0.40712	  0.90659	 -0.01030	  1.27073	706.54102	 24.10	
  6.800	-96.985	  1.26031	  0.61558	  0.65775	  0.39269	  0.92186	 -0.01089	  1.26957	706.49597	 24.00	
  6.800	-83.015	  1.25665	  0.67725	  0.59245	  0.39134	  0.91956	 -0.01187	  1.26680	706.45697	 24.10	
  6.787	-69.246	  1.26410	  0.74361	  0.53670	  0.40629	  0.90926	 -0.01229	  1.27461	706.54303	 24.10	
  6.792	-55.409	  1.26113	  0.80065	  0.48252	  0.43058	  0.87636	 -0.01162	  1.27265	706.46198	 24.00	
  6.795	-41.617	  1.26039	  0.85072	  0.43877	  0.46773	  0.83184	 -0.01068	  1.27309	706.51300	 24.10	
  6.808	-27.689	  1.26243	  0.89195	  0.40551	  0.51731	  0.77799	 -0.00949	  1.27506	706.61603	 24.10	
  6.796	-13.771	  1.26260	  0.91643	  0.38517	  0.57322	  0.71717	 -0.00869	  1.27624	706.52899	 24.10	
  6.800	  0.000	  1.26286	  0.92524	  0.37855	  0.63383	  0.65358	 -0.00802	  1.27620	706.48499	 24.10	
  6.796	 13.771	  1.26291	  0.91792	  0.38411	  0.69708	  0.59111	 -0.00681	  1.27570	706.42902	 24.10	
  6.808	 27.689	  1.26225	  0.89442	  0.40250	  0.75745	  0.53441	 -0.00578	  1.27527	706.44800	 24.10	
  6.795	 41.617	  1.26540	  0.85697	  0.43677	  0.81353	  0.48820	 -0.00426	  1.27720	706.45099	 24.10	
  6.792	 55.409	  1.26459	  0.80692	  0.48021	  0.85784	  0.44993	 -0.00324	  1.27649	706.45697	 24.10	
  6.787	 69.246	  1.26804	  0.75098	  0.53280	  0.89188	  0.42438	 -0.00388	  1.27818	706.44800	 24.10	
  6.800	 83.015	  1.26674	  0.68781	  0.59099	  0.90792	  0.41050	 -0.00338	  1.27572	706.43201	 24.10	
  6.800	 96.985	  1.26091	  0.62165	  0.65198	  0.90430	  0.40952	 -0.00392	  1.26886	706.47900	 24.10	
  6.787	110.754	  1.26966	  0.56690	  0.71736	  0.89400	  0.42481	 -0.00520	  1.27686	706.54999	 24.10	
  6.792	124.591	  1.26936	  0.51378	  0.77583	  0.86304	  0.45039	 -0.00572	  1.27566	706.40802	 24.10	
  6.795	138.383	  1.26271	  0.46743	  0.82268	  0.81446	  0.48609	 -0.00640	  1.26903	706.41400	 24.10	
  6.808	152.311	  1.27193	  0.43716	  0.86831	  0.76661	  0.53725	 -0.00712	  1.27757	706.38300	 24.10	
  6.796	166.229	  1.27243	  0.41626	  0.89354	  0.70601	  0.59435	 -0.00700	  1.27931	706.42603	 24.10	
  8.491	168.704	  1.25379	  0.33788	  0.94819	  0.69174	  0.57540	 -0.01590	  1.27410	706.21399	 24.10	
  8.502	157.493	  1.25292	  0.35482	  0.92634	  0.75382	  0.51545	 -0.01539	  1.27308	706.46997	 24.10	
  8.494	146.194	  1.25168	  0.38275	  0.89149	  0.81147	  0.46280	 -0.01455	  1.27169	706.44299	 24.10	
  8.495	135.039	  1.24919	  0.41808	  0.84543	  0.86230	  0.41660	 -0.01301	  1.26994	706.50098	 24.10	
  8.487	123.723	  1.24358	  0.46286	  0.78900	  0.90166	  0.37877	 -0.01339	  1.26455	706.42603	 24.10	
  8.492	112.575	  1.24390	  0.51554	  0.73019	  0.93391	  0.35252	 -0.01350	  1.26604	706.43103	 24.10	
  8.510	101.220	  1.24761	  0.57706	  0.66846	  0.95718	  0.33712	 -0.01205	  1.27193	706.48798	 24.10	
  8.500	 90.000	  1.24328	  0.63786	  0.60270	  0.95993	  0.33156	 -0.01012	  1.26755	706.46997	 24.10	
  8.510	 78.780	  1.24634	  0.70404	  0.54141	  0.95632	  0.33702	 -0.01149	  1.27311	706.47400	 24.10	
  8.492	 67.425	  1.24102	  0.76416	  0.48037	  0.93133	  0.35219	 -0.01209	  1.26881	706.37701	 24.10	
  8.487	 56.277	  1.24285	  0.82357	  0.42873	  0.90027	  0.37799	 -0.01095	  1.27025	706.34399	 24.10	
  8.495	 44.961	  1.23861	  0.87436	  0.38194	  0.85382	  0.41350	 -0.01169	  1.26726	706.47699	 24.10	
  8.494	 33.806	  1.24204	  0.91949	  0.34659	  0.80312	  0.46029	 -0.01304	  1.27100	706.51898	 24.10	
  8.502	 22.507	  1.23921	  0.94988	  0.31970	  0.74297	  0.51223	 -0.01536	  1.26980	706.45099	 24.10	
  8.491	 11.296	  1.24178	  0.97085	  0.30591	  0.68159	  0.57247	 -0.01606	  1.27267	706.48499	 24.10	
  8.500	  0.000	  1.23949	  0.97528	  0.29990	  0.61583	  0.63593	 -0.01690	  1.27014	706.45001	 24.10	
  8.491	-11.296	  1.24563	  0.97253	  0.30810	  0.55539	  0.70474	 -0.01804	  1.27692	706.41699	 24.10	
  8.502	-22.507	  1.24514	  0.95185	  0.32476	  0.49646	  0.76770	 -0.01932	  1.27511	706.34900	 24.10	
  8.494	-33.806	  1.23937	  0.91345	  0.35124	  0.44108	  0.82383	 -0.01844	  1.26825	706.34900	 24.10	
  8.495	-44.961	  1.24075	  0.87123	  0.38760	  0.39671	  0.87744	 -0.02008	  1.27005	706.55798	 24.10	
  8.487	-56.277	  1.24653	  0.82100	  0.43675	  0.36393	  0.92369	 -0.02134	  1.27533	706.53998	 24.10	
  8.492	-67.425	  1.24902	  0.76318	  0.49081	  0.33844	  0.95791	 -0.02186	  1.27646	706.61401	 24.10	
  8.510	-78.780	  1.24457	  0.69656	  0.54894	  0.32103	  0.97478	 -0.02111	  1.27138	706.56000	 24.10	
  8.500	-90.000	  1.24632	  0.63176	  0.61270	  0.31603	  0.98192	 -0.01954	  1.27140	706.53198	 24.10	
  8.510	-101.220	  1.25150	  0.57092	  0.68036	  0.32331	  0.97870	 -0.02040	  1.27559	706.57501	 24.10	
  8.492	-112.575	  1.25719	  0.51355	  0.74669	  0.34234	  0.96145	 -0.01938	  1.28021	706.42499	 24.10	
  8.487	-123.723	  1.25026	  0.45824	  0.80149	  0.36771	  0.92418	 -0.01789	  1.27344	706.52698	 24.10	
  8.495	-135.039	  1.24715	  0.41087	  0.85231	  0.40190	  0.87881	 -0.01634	  1.27001	706.53998	 24.10	
  8.494	-146.194	  1.24774	  0.37548	  0.89445	  0.44759	  0.82536	 -0.01650	  1.26894	706.52899	 24.10	
  8.502	-157.493	  1.24942	  0.34995	  0.92827	  0.50225	  0.76619	 -0.01701	  1.27058	706.34399	 24.10	
  8.491	-168.704	  1.25297	  0.33609	  0.94939	  0.56308	  0.70508	 -0.01620	  1.27321	706.45697	 24.10	
  8.500	180.000	  1.25255	  0.33186	  0.95514	  0.62571	  0.63986	 -0.01543	  1.27207	706.39801	 24.10	
 10.200	180.000	  1.23240	  0.25412	  1.00710	  0.60770	  0.62114	 -0.02461	  1.27155	706.36902	 24.10	
 10.191	-170.497	  1.22902	  0.25741	  0.99956	  0.54245	  0.68482	 -0.02550	  1.26819	706.41699	 24.10	
 10.210	-161.034	  1.23384	  0.27012	  0.98707	  0.48366	  0.75245	 -0.02694	  1.27368	706.46301	 24.10	
 10.194	-151.526	  1.23199	  0.29279	  0.95765	  0.42651	  0.81491	 -0.02583	  1.27315	706.33197	 24.10	
 10.190	-142.105	  1.23164	  0.32283	  0.92066	  0.37660	  0.87260	 -0.02524	  1.27344	706.41901	 24.10	
 10.215	-132.646	  1.23094	  0.36100	  0.87402	  0.33310	  0.92339	 -0.02519	  1.27455	706.51898	 24.10	
 10.203	-123.092	  1.23151	  0.40806	  0.81981	  0.29730	  0.96735	 -0.02691	  1.27458	706.42902	 24.10	
 10.192	-113.678	  1.23026	  0.46089	  0.75874	  0.27043	  1.00017	 -0.02866	  1.27450	706.36298	 24.10	
 10.208	-104.249	  1.22898	  0.51887	  0.69490	  0.25085	  1.02291	 -0.03017	  1.27540	706.49500	 24.10	
 10.210	-94.801	  1.22328	  0.57869	  0.62784	  0.24052	  1.03101	 -0.02991	  1.26977	706.60303	 24.10	
 10.210	-85.199	  1.22294	  0.64509	  0.56116	  0.23970	  1.03164	 -0.02986	  1.27047	706.58801	 24.10	
 10.208	-75.751	  1.22645	  0.71276	  0.49966	  0.24913	  1.02340	 -0.03087	  1.27535	706.62000	 24.10	
 10.192	-66.322	  1.22682	  0.77631	  0.44182	  0.26744	  1.00054	 -0.03233	  1.27669	706.53998	 24.10	
 10.203	-56.908	  1.22516	  0.83676	  0.38741	  0.29397	  0.96657	 -0.03191	  1.27568	706.59802	 24.10	
 10.215	-47.354	  1.21767	  0.88747	  0.33744	  0.32657	  0.91836	 -0.03100	  1.26876	706.57397	 24.10	
 10.190	-37.895	  1.22210	  0.93802	  0.29916	  0.37008	  0.87108	 -0.02817	  1.27339	706.58099	 24.10	
 10.194	-28.474	  1.21962	  0.97462	  0.26724	  0.41823	  0.81192	 -0.02724	  1.27261	706.59497	 24.10	
 10.210	-18.966	  1.22169	  1.00552	  0.24329	  0.47466	  0.75068	 -0.02725	  1.27492	706.51202	 24.10	
 10.191	 -9.503	  1.22204	  1.02372	  0.22975	  0.53498	  0.68649	 -0.02716	  1.27475	706.49597	 24.10	
 10.200	  0.000	  1.21926	  1.02819	  0.22312	  0.59713	  0.61927	 -0.02550	  1.27353	706.54102	 24.10	
 10.191	  9.503	  1.21858	  1.02181	  0.22779	  0.66294	  0.55453	 -0.02427	  1.27177	706.58301	 24.10	
 10.210	 18.966	  1.22541	  1.01114	  0.24189	  0.73073	  0.49678	 -0.02375	  1.27802	706.56299	 24.10	
 10.194	 28.474	  1.21814	  0.97719	  0.26323	  0.78843	  0.43771	 -0.02206	  1.27048	706.56702	 24.10	
 10.190	 37.895	  1.21980	  0.94093	  0.29409	  0.84669	  0.38820	 -0.02059	  1.27049	706.65302	 24.10	
 10.215	 47.354	  1.22242	  0.89595	  0.33189	  0.89968	  0.34488	 -0.01955	  1.27278	706.68103	 24.20	
 10.203	 56.908	  1.22055	  0.83960	  0.37912	  0.94095	  0.31009	 -0.01901	  1.26907	706.65698	 24.20	
 10.192	 66.322	  1.21944	  0.77931	  0.43139	  0.97265	  0.28409	 -0.01995	  1.26831	706.67401	 24.10	
 10.208	 75.751	  1.22660	  0.72020	  0.49130	  1.00117	  0.26685	 -0.02076	  1.27259	706.51300	 24.20	
 10.210	 85.199	  1.22261	  0.65341	  0.55178	  1.01043	  0.25721	 -0.02024	  1.26910	706.52698	 24.10	
 10.210	 94.801	  1.22747	  0.58983	  0.61921	  1.01437	  0.25796	 -0.02002	  1.27227	706.49799	 24.20	
 10.208	104.249	  1.23054	  0.52886	  0.68507	  1.00537	  0.26779	 -0.02159	  1.27410	706.41400	 24.20	
 10.192	113.678	  1.23289	  0.47091	  0.75009	  0.98379	  0.28675	 -0.02265	  1.27432	706.47400	 24.20	
 10.203	123.092	  1.23165	  0.41719	  0.80981	  0.95114	  0.31249	 -0.02340	  1.27309	706.33002	 24.20	
 10.215	132.646	  1.22768	  0.36769	  0.86298	  0.90580	  0.34581	 -0.02267	  1.26825	706.51801	 24.20	
 10.190	142.105	  1.23058	  0.33024	  0.91204	  0.85641	  0.39049	 -0.02366	  1.27072	706.49597	 24.20	
 10.194	151.526	  1.23354	  0.29871	  0.95283	  0.80107	  0.44123	 -0.02397	  1.27294	706.52899	 24.20	
 10.210	161.034	  1.23117	  0.27417	  0.98127	  0.73777	  0.49579	 -0.02511	  1.27031	706.41400	 24.20	
 10.191	170.497	  1.23409	  0.26033	  1.00136	  0.67527	  0.55798	 -0.02470	  1.27230	706.41498	 24.20	
 11.899	171.783	  1.21239	  0.18405	  1.05268	  0.65705	  0.53700	 -0.03488	  1.27491	706.54303	 24.20	
 11.890	163.610	  1.20660	  0.19638	  1.03069	  0.71838	  0.47454	 -0.03526	  1.26877	706.50800	 24.20	
 11.889	155.445	  1.20684	  0.21516	  1.00572	  0.78110	  0.41661	 -0.03389	  1.26955	706.43903	 24.20	
 11.909	147.299	  1.21148	  0.24275	  0.97606	  0.84545	  0.36466	 -0.03340	  1.27496	706.56897	 24.20	
 11.902	139.148	  1.20674	  0.27668	  0.92916	  0.89732	  0.31638	 -0.03275	  1.27024	706.51001	 24.20	
 11.894	130.867	  1.20587	  0.31820	  0.87747	  0.94513	  0.27583	 -0.03346	  1.26966	706.56000	 24.20	
 11.897	122.732	  1.21350	  0.36774	  0.82664	  0.99382	  0.24337	 -0.03304	  1.28009	706.43201	 24.20	
 11.903	114.597	  1.20897	  0.42041	  0.76291	  1.02452	  0.21616	 -0.03254	  1.27546	706.55200	 24.20	
 11.893	106.346	  1.20501	  0.47807	  0.69615	  1.04547	  0.19654	 -0.03123	  1.27339	706.45697	 24.20	
 11.892	 98.155	  1.20487	  0.53946	  0.63094	  1.06121	  0.18466	 -0.03052	  1.27478	706.49298	 24.20	
 11.900	 90.000	  1.20378	  0.60266	  0.56462	  1.06513	  0.18003	 -0.03106	  1.27479	706.53497	 24.20	
 11.892	 81.845	  1.19757	  0.66530	  0.49830	  1.05446	  0.18320	 -0.02980	  1.26961	706.56702	 24.20	
 11.893	 73.654	  1.19671	  0.73010	  0.43674	  1.03863	  0.19490	 -0.03017	  1.26898	706.50403	 24.20	
 11.903	 65.403	  1.19956	  0.79637	  0.38044	  1.01630	  0.21458	 -0.03028	  1.27392	706.56403	 24.20	
 11.897	 57.268	  1.19997	  0.85702	  0.32825	  0.98285	  0.24123	 -0.02828	  1.27590	706.57397	 24.20	
 11.894	 49.133	  1.19715	  0.91017	  0.28167	  0.93784	  0.27545	 -0.02815	  1.27352	706.65302	 24.20	
 11.902	 40.852	  1.19586	  0.95920	  0.24030	  0.88824	  0.31518	 -0.02964	  1.27390	706.58099	 24.20	
 11.909	 32.701	  1.19510	  1.00034	  0.20604	  0.83194	  0.36182	 -0.02999	  1.27376	706.56897	 24.20	
 11.889	 24.555	  1.19790	  1.03596	  0.18179	  0.77390	  0.41688	 -0.03184	  1.27767	706.57703	 24.20	
 11.890	 16.390	  1.19567	  1.05726	  0.16319	  0.70844	  0.47345	 -0.03193	  1.27478	706.52698	 24.20	
 11.899	  8.217	  1.19536	  1.07216	  0.15197	  0.64346	  0.53541	 -0.03425	  1.27529	706.57202	 24.20	
 11.900	  0.000	  1.19328	  1.07512	  0.14846	  0.57644	  0.59930	 -0.03516	  1.27260	706.49597	 24.20	
 11.899	 -8.217	  1.19549	  1.07109	  0.15359	  0.51406	  0.66611	 -0.03537	  1.27507	706.53601	 24.20	
 11.890	-16.390	  1.19528	  1.05515	  0.16624	  0.45317	  0.73155	 -0.03560	  1.27540	706.52600	 24.20	
 11.889	-24.555	  1.19211	  1.02678	  0.18564	  0.39492	  0.79323	 -0.03662	  1.27118	706.59497	 24.20	
 11.909	-32.701	  1.19830	  0.99843	  0.21258	  0.34386	  0.85769	 -0.03605	  1.27745	706.58301	 24.20	
 11.902	-40.852	  1.19714	  0.95398	  0.24734	  0.29844	  0.91152	 -0.03845	  1.27528	706.62000	 24.20	
 11.894	-49.133	  1.19840	  0.90387	  0.29026	  0.25788	  0.96249	 -0.03997	  1.27564	706.63702	 24.20	
 11.897	-57.268	  1.19362	  0.84419	  0.33552	  0.22300	  1.00044	 -0.04135	  1.26957	706.56299	 24.20	
 11.903	-65.403	  1.19729	  0.78601	  0.38938	  0.19714	  1.03797	 -0.04183	  1.27338	706.65399	 24.20	
 11.893	-73.654	  1.19984	  0.72225	  0.44915	  0.17891	  1.06343	 -0.04148	  1.27385	706.58099	 24.20	
 11.892	-81.845	  1.20363	  0.65913	  0.51265	  0.16873	  1.08097	 -0.04032	  1.27807	706.61102	 24.20	
 11.900	-90.000	  1.20425	  0.59285	  0.57703	  0.16556	  1.08554	 -0.04031	  1.27599	706.69000	 24.20	
 11.892	-98.155	  1.20834	  0.53009	  0.64512	  0.17041	  1.08253	 -0.04023	  1.27987	706.66199	 24.20	
 11.893	-106.346	  1.20727	  0.46768	  0.71008	  0.18148	  1.06731	 -0.04107	  1.27772	706.56299	 24.20	
 11.903	-114.597	  1.20594	  0.40795	  0.77299	  0.19972	  1.04124	 -0.03947	  1.27681	706.53601	 24.20	
 11.897	-122.732	  1.20574	  0.35611	  0.83299	  0.22800	  1.00601	 -0.03696	  1.27498	706.60303	 24.20	
 11.894	-130.867	  1.20913	  0.31093	  0.88953	  0.26337	  0.96587	 -0.03537	  1.27610	706.59998	 24.20	
 11.902	-139.148	  1.20493	  0.26878	  0.93643	  0.30383	  0.91164	 -0.03512	  1.27171	706.50403	 24.20	
 11.909	-147.299	  1.21030	  0.23577	  0.98263	  0.35153	  0.86019	 -0.03532	  1.27638	706.61603	 24.20	
 11.889	-155.445	  1.20955	  0.21068	  1.01383	  0.40503	  0.79821	 -0.03596	  1.27481	706.60602	 24.20	
 11.890	-163.610	  1.20882	  0.19227	  1.03718	  0.46258	  0.73308	 -0.03658	  1.27296	706.56403	 24.20	
 11.899	-171.783	  1.21181	  0.18230	  1.05374	  0.52534	  0.66942	 -0.03560	  1.27576	706.52899	 24.20	
 11.900	180.000	  1.21028	  0.17911	  1.05653	  0.58911	  0.60285	 -0.03470	  1.27375	706.58099	 24.20	
 13.600	180.000	  1.18420	  0.10386	  1.10236	  0.56785	  0.57982	 -0.04503	  1.27634	706.50201	 24.20	
 13.608	-172.853	  1.17992	  0.10520	  1.09588	  0.50238	  0.64214	 -0.04649	  1.27309	706.49298	 24.20	
 13.611	-165.583	  1.18051	  0.11377	  1.08429	  0.44018	  0.70885	 -0.04800	  1.27419	706.41699	 24.20	
 13.601	-158.353	  1.18024	  0.13080	  1.06246	  0.38072	  0.77522	 -0.04676	  1.27438	706.42603	 24.20	
 13.609	-151.210	  1.17802	  0.15236	  1.03173	  0.32577	  0.83554	 -0.04587	  1.27232	706.59497	 24.20	
 13.611	-143.999	  1.18109	  0.18141	  0.99733	  0.27704	  0.89680	 -0.04545	  1.27750	706.54700	 24.20	
 13.601	-136.825	  1.17625	  0.21540	  0.94942	  0.23125	  0.94804	 -0.04464	  1.27300	706.53302	 24.20	
 13.596	-129.640	  1.17750	  0.25667	  0.89926	  0.19201	  0.99820	 -0.04521	  1.27498	706.50500	 24.20	
 13.611	-122.431	  1.17757	  0.30358	  0.84286	  0.15905	  1.04093	 -0.04634	  1.27633	706.52100	 24.20	
 13.604	-115.211	  1.17638	  0.35520	  0.78270	  0.13251	  1.07371	 -0.04776	  1.27625	706.54102	 24.20	
 13.595	-108.042	  1.17721	  0.41258	  0.71931	  0.11332	  1.10126	 -0.04904	  1.27828	706.62903	 24.20	
 13.607	-100.793	  1.17185	  0.47059	  0.65055	  0.09830	  1.11490	 -0.04944	  1.27318	706.73297	 24.20	
 13.601	-93.617	  1.17059	  0.53342	  0.58502	  0.09169	  1.12244	 -0.04825	  1.27300	706.59802	 24.20	
 13.601	-86.383	  1.17384	  0.60123	  0.52051	  0.09134	  1.12749	 -0.04742	  1.27743	706.51599	 24.30	
 13.607	-79.207	  1.16923	  0.66459	  0.45586	  0.09716	  1.11500	 -0.04719	  1.27317	706.56000	 24.30	
 13.595	-71.958	  1.16547	  0.72799	  0.39426	  0.10996	  1.09392	 -0.04770	  1.27088	706.51599	 24.30	
 13.604	-64.789	  1.16764	  0.79428	  0.33803	  0.12926	  1.07134	 -0.04811	  1.27531	706.52600	 24.30	
 13.611	-57.569	  1.16600	  0.85464	  0.28434	  0.15377	  1.03734	 -0.04908	  1.27484	706.58899	 24.30	
 13.596	-50.360	  1.16606	  0.91145	  0.23762	  0.18635	  0.99601	 -0.04817	  1.27464	706.48999	 24.30	
 13.601	-43.175	  1.16275	  0.96075	  0.19562	  0.22452	  0.94469	 -0.04633	  1.27150	706.57703	 24.30	
 13.611	-36.001	  1.16515	  1.00889	  0.15983	  0.26799	  0.89326	 -0.04352	  1.27527	706.64301	 24.30	
 13.609	-28.790	  1.16531	  1.04804	  0.12829	  0.31632	  0.83545	 -0.04345	  1.27607	706.50500	 24.30	
 13.601	-21.647	  1.16468	  1.07771	  0.10547	  0.36910	  0.77374	 -0.04169	  1.27562	706.52899	 24.30	
 13.611	-14.417	  1.16300	  1.09922	  0.08862	  0.42845	  0.70728	 -0.04235	  1.27411	706.53198	 24.30	
 13.608	 -7.147	  1.16294	  1.11303	  0.07790	  0.48980	  0.64143	 -0.04127	  1.27400	706.49799	 24.30	
 13.600	  0.000	  1.15643	  1.11133	  0.07364	  0.54955	  0.57341	 -0.04212	  1.26586	706.54401	 24.30	
 13.608	  7.147	  1.15912	  1.11127	  0.07594	  0.61525	  0.51021	 -0.04201	  1.26992	706.54901	 24.30	
 13.611	 14.417	  1.16251	  1.10173	  0.08545	  0.68301	  0.44994	 -0.04052	  1.27428	706.56702	 24.30	
 13.601	 21.647	  1.16076	  1.07761	  0.10108	  0.74599	  0.39096	 -0.03873	  1.27130	706.51599	 24.30	
 13.609	 28.790	  1.16368	  1.05157	  0.12299	  0.81025	  0.33632	 -0.03881	  1.27374	706.56299	 24.30	
 13.611	 36.001	  1.16192	  1.01251	  0.15184	  0.86747	  0.28599	 -0.03948	  1.27197	706.54102	 24.30	
 13.601	 43.175	  1.16629	  0.97093	  0.18777	  0.92344	  0.24405	 -0.03889	  1.27630	706.51898	 24.30	
 13.596	 50.360	  1.16650	  0.92068	  0.22922	  0.97248	  0.20486	 -0.03892	  1.27459	706.65997	 24.30	
 13.611	 57.569	  1.16368	  0.86244	  0.27432	  1.01185	  0.17131	 -0.03760	  1.27010	706.58099	 24.30	
 13.604	 64.789	  1.16984	  0.80596	  0.32766	  1.05148	  0.14548	 -0.03783	  1.27538	706.60797	 24.30	
 13.595	 71.958	  1.16859	  0.74075	  0.38373	  1.07596	  0.12620	 -0.03860	  1.27260	706.65002	 24.30	
 13.607	 79.207	  1.17108	  0.67692	  0.44423	  1.09571	  0.11284	 -0.04013	  1.27319	706.42902	 24.30	
 13.601	 86.383	  1.17435	  0.61326	  0.50887	  1.10702	  0.10755	 -0.03918	  1.27542	706.62799	 24.30	
 13.601	 93.617	  1.17187	  0.54634	  0.57252	  1.10455	  0.10739	 -0.03974	  1.27266	706.46698	 24.30	
 13.607	100.793	  1.17622	  0.48495	  0.63923	  1.10030	  0.11343	 -0.04018	  1.27497	706.60797	 24.30	
 13.595	108.042	  1.17746	  0.42468	  0.70600	  1.08359	  0.12707	 -0.04113	  1.27521	706.63702	 24.30	
 13.604	115.211	  1.17761	  0.36715	  0.77006	  1.05885	  0.14625	 -0.04219	  1.27313	706.79901	 24.30	
 13.611	122.431	  1.17902	  0.31498	  0.83189	  1.02596	  0.17236	 -0.04301	  1.27437	706.62799	 24.30	
 13.596	129.640	  1.17928	  0.26820	  0.88772	  0.98310	  0.20577	 -0.04243	  1.27266	706.53601	 24.30	
 13.601	136.825	  1.18056	  0.22573	  0.94150	  0.93617	  0.24484	 -0.04261	  1.27326	706.60797	 24.30	
 13.611	143.999	  1.17658	  0.18880	  0.98427	  0.88002	  0.28786	 -0.04223	  1.26880	706.60498	 24.30	
 13.609	151.210	  1.18093	  0.15928	  1.02603	  0.82498	  0.33822	 -0.04267	  1.27357	706.49597	 24.30	
 13.601	158.353	  1.18516	  0.13624	  1.06030	  0.76498	  0.39476	 -0.04396	  1.27677	706.48199	 24.30	
 13.611	165.583	  1.17970	  0.11874	  1.07922	  0.69771	  0.45186	 -0.04515	  1.27147	706.51001	 24.30	
 13.608	172.853	  1.18324	  0.10788	  1.09670	  0.63375	  0.51529	 -0.04532	  1.27617	706.46503	 24.30	
 15.298	173.587	  1.15235	  0.03506	  1.13728	  0.60952	  0.49021	 -0.05452	  1.27811	706.45898	 24.30	
 15.291	167.167	  1.15205	  0.04536	  1.12466	  0.67485	  0.42888	 -0.05526	  1.27682	706.44598	 24.30	
 15.307	160.676	  1.15476	  0.05866	  1.10724	  0.74195	  0.36902	 -0.05503	  1.28077	706.48102	 24.40	
 15.300	154.261	  1.14823	  0.08117	  1.07265	  0.80059	  0.31288	 -0.05074	  1.27215	706.51801	 24.40	
 15.288	147.854	  1.15036	  0.10647	  1.03977	  0.86161	  0.26234	 -0.05111	  1.27509	706.35999	 24.30	
 15.293	141.428	  1.15184	  0.13993	  0.99920	  0.91971	  0.21660	 -0.05115	  1.27779	706.54401	 24.40	
 15.299	134.985	  1.14585	  0.17440	  0.94649	  0.96751	  0.17153	 -0.05313	  1.27177	706.44202	 24.40	
 15.305	128.583	  1.15062	  0.21808	  0.89786	  1.01906	  0.13632	 -0.05186	  1.27737	706.53198	 24.40	
 15.309	122.142	  1.14843	  0.26490	  0.83843	  1.05790	  0.10510	 -0.05044	  1.27768	706.43201	 24.40	
 15.304	115.711	  1.14607	  0.31628	  0.77567	  1.08895	  0.08033	 -0.04906	  1.27421	706.59100	 24.40	
 15.297	109.291	  1.14768	  0.37343	  0.71401	  1.11681	  0.06184	 -0.04772	  1.27760	706.62299	 24.40	
 15.293	102.897	  1.14296	  0.43007	  0.64644	  1.13157	  0.04646	 -0.04662	  1.27440	706.57703	 24.40	
 15.293	 96.458	  1.13875	  0.49068	  0.57929	  1.13929	  0.03813	 -0.04663	  1.27141	706.61401	 24.40	
 15.300	 90.000	  1.14161	  0.55540	  0.51459	  1.14731	  0.03379	 -0.04746	  1.27675	706.58899	 24.40	
 15.293	 83.542	  1.13961	  0.62096	  0.45144	  1.14107	  0.03882	 -0.04777	  1.27559	706.73798	 24.40	
 15.293	 77.103	  1.13780	  0.68516	  0.39068	  1.12747	  0.04849	 -0.04686	  1.27463	706.62000	 24.40	
 15.297	 70.709	  1.13700	  0.74842	  0.33218	  1.10710	  0.06267	 -0.04529	  1.27491	706.58801	 24.40	
 15.304	 64.289	  1.13370	  0.81002	  0.27621	  1.07807	  0.08164	 -0.04608	  1.27299	706.51202	 24.40	
 15.309	 57.858	  1.12778	  0.86634	  0.22684	  1.03982	  0.10813	 -0.04512	  1.26860	706.54901	 24.40	
 15.305	 51.417	  1.13512	  0.92791	  0.18105	  1.00527	  0.13815	 -0.04649	  1.27793	706.62799	 24.40	
 15.299	 45.015	  1.13062	  0.97683	  0.14080	  0.95526	  0.17579	 -0.04773	  1.27390	706.68402	 24.40	
 15.293	 38.572	  1.12930	  1.02182	  0.10301	  0.90071	  0.21663	 -0.04602	  1.27262	706.63599	 24.40	
 15.288	 32.146	  1.12490	  1.05820	  0.07356	  0.84120	  0.26223	 -0.04324	  1.26886	706.51801	 24.40	
 15.300	 25.739	  1.12508	  1.09166	  0.04831	  0.78268	  0.31227	 -0.04312	  1.26896	706.54303	 24.40	
 15.307	 19.324	  1.12709	  1.11975	  0.03188	  0.72145	  0.36979	 -0.04419	  1.27180	706.56403	 24.40	
 15.291	 12.833	  1.12868	  1.13924	  0.01603	  0.65689	  0.42848	 -0.04504	  1.27443	706.55499	 24.40	
 15.298	  6.413	  1.12627	  1.14854	  0.00930	  0.59221	  0.48911	 -0.04620	  1.27210	706.48199	 24.40	
 15.300	  0.000	  1.12586	  1.15225	  0.00493	  0.52703	  0.55152	 -0.04478	  1.27169	706.55499	 24.40	
 15.298	 -6.413	  1.12769	  1.14909	  0.01105	  0.46639	  0.61741	 -0.04414	  1.27299	706.54303	 24.40	
 15.291	-12.833	  1.13082	  1.13880	  0.02266	  0.40923	  0.68425	 -0.04425	  1.27580	706.50500	 24.40	
 15.307	-19.324	  1.13068	  1.11986	  0.03188	  0.34669	  0.74880	 -0.04515	  1.27689	706.53198	 24.40	
 15.300	-25.739	  1.12882	  1.09040	  0.05442	  0.29411	  0.80987	 -0.04574	  1.27386	706.52600	 24.40	
 15.288	-32.146	  1.13240	  1.05824	  0.08166	  0.24616	  0.87076	 -0.04614	  1.27632	706.53198	 24.40	
 15.293	-38.572	  1.12609	  1.01209	  0.11250	  0.19834	  0.92354	 -0.04846	  1.26973	706.56403	 24.40	
 15.299	-45.015	  1.13011	  0.96780	  0.14833	  0.15656	  0.97892	 -0.05309	  1.27366	706.55798	 24.40	
 15.305	-51.417	  1.13043	  0.91550	  0.18983	  0.12062	  1.02478	 -0.05405	  1.27363	706.60797	 24.40	
 15.309	-57.858	  1.12914	  0.85702	  0.23658	  0.09022	  1.06359	 -0.05420	  1.27085	706.58801	 24.40	
 15.304	-64.289	  1.13541	  0.80011	  0.28888	  0.06504	  1.10335	 -0.05188	  1.27662	706.65100	 24.40	
 15.297	-70.709	  1.13291	  0.73435	  0.34515	  0.04644	  1.12647	 -0.05083	  1.27314	706.56897	 24.40	
 15.293	-77.103	  1.13580	  0.67122	  0.40230	  0.03151	  1.14771	 -0.05037	  1.27466	706.52100	 24.40	
 15.293	-83.542	  1.13478	  0.60496	  0.46414	  0.02302	  1.15863	 -0.05175	  1.27319	706.54700	 24.40	
 15.300	-90.000	  1.13923	  0.54218	  0.53033	  0.02173	  1.16560	 -0.05430	  1.27710	706.60303	 24.40	
 15.293	-96.458	  1.13677	  0.47707	  0.59366	  0.02541	  1.15744	 -0.05516	  1.27262	706.68103	 24.40	
 15.293	-102.897	  1.13940	  0.41642	  0.66045	  0.03329	  1.14876	 -0.05543	  1.27499	706.66699	 24.40	
 15.297	-109.291	  1.14384	  0.35871	  0.72706	  0.04710	  1.13261	 -0.05659	  1.27805	706.58801	 24.40	
 15.304	-115.711	  1.14433	  0.30449	  0.78965	  0.06878	  1.10508	 -0.05713	  1.27782	706.60602	 24.40	
 15.309	-122.142	  1.14136	  0.25377	  0.84740	  0.09532	  1.06796	 -0.05513	  1.27364	706.59698	 24.40	
 15.305	-128.583	  1.14469	  0.20734	  0.90585	  0.12647	  1.02917	 -0.05383	  1.27551	706.68103	 24.40	
 15.299	-134.985	  1.14304	  0.16670	  0.95625	  0.16317	  0.98123	 -0.05334	  1.27341	706.66498	 24.40	
 15.293	-141.428	  1.14312	  0.13082	  1.00236	  0.20527	  0.92742	 -0.05342	  1.27144	706.76099	 24.40	
 15.288	-147.854	  1.14588	  0.10108	  1.04499	  0.25287	  0.87156	 -0.05487	  1.27407	706.59998	 24.40	
 15.300	-154.261	  1.14424	  0.07718	  1.07656	  0.30465	  0.81049	 -0.05484	  1.27131	706.63397	 24.40	
 15.307	-160.676	  1.14551	  0.05734	  1.10395	  0.35895	  0.74879	 -0.05405	  1.27231	706.54700	 24.40	
 15.291	-167.167	  1.14747	  0.04357	  1.12375	  0.41878	  0.68398	 -0.05444	  1.27360	706.59998	 24.40	
 15.298	-173.587	  1.15029	  0.03521	  1.13704	  0.48088	  0.61956	 -0.05380	  1.27589	706.63702	 24.40	
 15.300	180.000	  1.14987	  0.03339	  1.13951	  0.54406	  0.55436	 -0.05327	  1.27450	706.56702	 24.40	
 17.000	180.000	  1.12056	 -0.01601	  1.17698	  0.52926	  0.53818	 -0.05663	  1.27942	706.65900	 24.40	
 16.990	-174.179	  1.11497	 -0.01534	  1.16881	  0.46487	  0.59863	 -0.05748	  1.27399	706.55200	 24.40	
 17.009	-168.383	  1.11403	 -0.01197	  1.15973	  0.40368	  0.65966	 -0.05984	  1.27433	706.59998	 24.40	
 17.000	-162.596	  1.11370	 -0.00222	  1.14443	  0.34457	  0.72410	 -0.06058	  1.27591	706.74597	 24.40	
 16.990	-156.759	  1.11357	  0.01693	  1.12015	  0.29134	  0.78720	 -0.06007	  1.27573	706.58398	 24.40	
 16.995	-150.919	  1.11707	  0.03793	  1.09381	  0.24126	  0.85088	 -0.05864	  1.28026	706.51599	 24.40	
 16.988	-145.161	  1.11266	  0.06353	  1.05352	  0.19262	  0.90652	 -0.05947	  1.27721	706.65002	 24.40	
 17.014	-139.343	  1.10926	  0.09517	  1.00896	  0.14882	  0.95873	 -0.05813	  1.27350	706.59998	 24.40	
 17.007	-133.546	  1.10967	  0.12963	  0.96244	  0.11001	  1.00900	 -0.05783	  1.27497	706.68701	 24.40	
 17.001	-127.699	  1.10758	  0.16944	  0.90864	  0.07429	  1.05314	 -0.05968	  1.27338	706.51300	 24.40	
 17.006	-121.937	  1.10897	  0.21244	  0.85511	  0.04320	  1.09564	 -0.05889	  1.27660	706.54700	 24.40	
 17.002	-116.134	  1.10422	  0.26109	  0.79251	  0.01903	  1.12518	 -0.05953	  1.27313	706.54303	 24.40	
 17.001	-110.310	  1.10305	  0.31355	  0.73157	 -0.00049	  1.15212	 -0.05881	  1.27310	706.58099	 24.40	
 16.988	-104.517	  1.10305	  0.36903	  0.66841	 -0.01477	  1.17270	 -0.05814	  1.27277	706.62903	 24.40	
 17.008	-98.662	  1.09955	  0.42737	  0.60307	 -0.02493	  1.18363	 -0.05491	  1.27109	706.54303	 24.40	
 16.996	-92.909	  1.10025	  0.48800	  0.54147	 -0.03003	  1.19190	 -0.05161	  1.27260	706.60498	 24.50	
 16.996	-87.091	  1.09539	  0.54738	  0.47444	 -0.03363	  1.18834	 -0.05206	  1.26819	706.52698	 24.50	
 17.012	-81.253	  1.09582	  0.61284	  0.41611	 -0.02645	  1.18242	 -0.04891	  1.27040	706.57397	 24.50	
 16.988	-75.483	  1.09701	  0.67650	  0.35764	 -0.01728	  1.17140	 -0.04726	  1.27288	706.56000	 24.50	
 17.001	-69.690	  1.09313	  0.73745	  0.29971	 -0.00610	  1.14903	 -0.04826	  1.27045	706.69501	 24.50	
 17.002	-63.866	  1.09513	  0.80071	  0.24766	  0.01434	  1.12400	 -0.04931	  1.27231	706.56299	 24.50	
 17.006	-58.063	  1.09090	  0.85793	  0.19736	  0.03792	  1.08764	 -0.04964	  1.26897	706.61902	 24.50	
 17.001	-52.301	  1.09573	  0.91834	  0.15452	  0.06841	  1.05259	 -0.05166	  1.27483	706.55701	 24.50	
 17.007	-46.454	  1.09025	  0.96716	  0.11101	  0.10058	  1.00293	 -0.05109	  1.26943	706.55798	 24.50	
 17.014	-40.657	  1.09260	  1.01790	  0.07360	  0.13748	  0.95652	 -0.04899	  1.27400	706.76300	 24.50	
 16.988	-34.839	  1.09177	  1.05970	  0.04287	  0.18026	  0.90128	 -0.04782	  1.27131	706.65997	 24.50	
 16.995	-29.081	  1.09609	  1.10116	  0.01692	  0.22808	  0.84717	 -0.04634	  1.27732	706.74103	 24.50	
 16.990	-23.241	  1.09104	  1.12731	 -0.00757	  0.27669	  0.78320	 -0.04497	  1.27261	706.63898	 24.50	
 17.000	-17.404	  1.09399	  1.15614	 -0.02549	  0.33066	  0.72348	 -0.04324	  1.27662	706.63702	 24.50	
 17.009	-11.617	  1.09647	  1.17718	 -0.03918	  0.38828	  0.66077	 -0.04356	  1.27949	706.63599	 24.50	
 16.990	 -5.821	  1.09250	  1.18204	 -0.04521	  0.44662	  0.59518	 -0.04292	  1.27462	706.56897	 24.50	
 17.000	  0.000	  1.09091	  1.18480	 -0.04887	  0.50650	  0.53179	 -0.04451	  1.27331	706.69501	 24.50	
 16.990	  5.821	  1.08811	  1.17826	 -0.04633	  0.56820	  0.46858	 -0.04541	  1.26962	706.63599	 24.50	
 17.009	 11.617	  1.08571	  1.16734	 -0.04012	  0.62890	  0.40905	 -0.04266	  1.26809	706.53497	 24.50	
 17.000	 17.404	  1.09018	  1.15543	 -0.02938	  0.69478	  0.35243	 -0.04339	  1.27156	706.62598	 24.50	
 16.990	 23.241	  1.09011	  1.13171	 -0.01317	  0.75726	  0.29599	 -0.04587	  1.27256	706.68402	 24.50	
 16.995	 29.081	  1.09485	  1.10590	  0.01153	  0.82006	  0.24941	 -0.04397	  1.27584	706.63898	 24.50	
 16.988	 34.839	  1.09135	  1.06627	  0.03765	  0.87418	  0.20206	 -0.04556	  1.27043	706.65900	 24.50	
 17.014	 40.657	  1.09031	  1.02433	  0.06453	  0.92892	  0.15531	 -0.04900	  1.26990	706.65302	 24.50	
 17.007	 46.454	  1.09206	  0.97860	  0.10050	  0.98128	  0.11671	 -0.04933	  1.27175	706.61102	 24.50	
 17.001	 52.301	  1.09729	  0.93076	  0.14291	  1.02965	  0.08582	 -0.05113	  1.27563	706.66199	 24.50	
 17.006	 58.063	  1.09550	  0.87371	  0.18816	  1.06707	  0.05826	 -0.04833	  1.27127	706.62299	 24.50	
 17.002	 63.866	  1.09716	  0.81612	  0.23487	  1.10214	  0.03285	 -0.05062	  1.27237	706.57397	 24.50	
 17.001	 69.690	  1.09809	  0.75398	  0.28558	  1.13265	  0.00831	 -0.05021	  1.27367	706.68500	 24.50	
 16.988	 75.483	  1.09955	  0.69131	  0.34114	  1.15451	 -0.00695	 -0.04903	  1.27413	706.57397	 24.50	
 17.012	 81.253	  1.10069	  0.62962	  0.40101	  1.16788	 -0.01349	 -0.05235	  1.27301	706.59698	 24.50	
 16.996	 87.091	  1.10797	  0.57060	  0.46589	  1.18053	 -0.01441	 -0.05170	  1.27838	706.61401	 24.50	
 16.996	 92.909	  1.10270	  0.50313	  0.52529	  1.17569	 -0.01902	 -0.05157	  1.27143	706.59998	 24.50	
 17.008	 98.662	  1.10365	  0.44439	  0.58927	  1.16944	 -0.01022	 -0.05029	  1.27106	706.66803	 24.50	
 16.988	104.517	  1.10475	  0.38420	  0.65307	  1.15624	 -0.00278	 -0.04941	  1.27092	706.56000	 24.50	
 17.001	110.310	  1.10830	  0.32860	  0.71837	  1.14007	  0.01101	 -0.05061	  1.27351	706.47900	 24.50	
 17.002	116.134	  1.10941	  0.27764	  0.78057	  1.11275	  0.03378	 -0.05223	  1.27235	706.52600	 24.50	
 17.006	121.937	  1.11057	  0.22478	  0.83963	  1.08049	  0.05326	 -0.05480	  1.27254	706.77502	 24.50	
 17.001	127.699	  1.10728	  0.17809	  0.89472	  1.03845	  0.08162	 -0.05679	  1.26889	706.69000	 24.50	
 17.007	133.546	  1.11311	  0.13678	  0.95306	  0.99981	  0.11522	 -0.05637	  1.27525	706.66998	 24.50	
 17.014	139.343	  1.11370	  0.10274	  1.00127	  0.94908	  0.15653	 -0.05698	  1.27408	706.65698	 24.50	
 16.988	145.161	  1.11047	  0.07019	  1.04090	  0.89167	  0.19964	 -0.05461	  1.26929	706.69202	 24.50	
 16.995	150.919	  1.11239	  0.03932	  1.08028	  0.83529	  0.24363	 -0.05533	  1.27182	706.59802	 24.50	
 16.990	156.759	  1.11424	  0.01947	  1.11240	  0.77547	  0.29777	 -0.05823	  1.27264	706.65002	 24.50	
 17.000	162.596	  1.11274	  0.00325	  1.13653	  0.71246	  0.35400	 -0.05906	  1.27113	706.64697	 24.50	
 17.009	168.383	  1.11630	 -0.00890	  1.15746	  0.65190	  0.41257	 -0.05843	  1.27462	706.74701	 24.50	
 16.990	174.179	  1.11543	 -0.01660	  1.16757	  0.58868	  0.47211	 -0.05911	  1.27388	706.73700	 24.50	
 18.709	174.675	  1.07062	 -0.09641	  1.19713	  0.55369	  0.43622	 -0.05714	  1.27293	706.64502	 24.50	
 18.703	169.441	  1.07087	 -0.08715	  1.18587	  0.61623	  0.37795	 -0.05930	  1.27108	706.64301	 24.50	
 18.691	164.085	  1.07247	 -0.07666	  1.17099	  0.68093	  0.31965	 -0.05940	  1.27271	706.62299	 24.50	
 18.706	158.818	  1.07893	 -0.06050	  1.15613	  0.74869	  0.26645	 -0.05604	  1.28102	706.56897	 24.50	
 18.695	153.537	  1.07538	 -0.03887	  1.12247	  0.80669	  0.21465	 -0.05738	  1.27617	706.66699	 24.40	
 18.704	148.255	  1.07465	 -0.01529	  1.08876	  0.86624	  0.16629	 -0.05500	  1.27625	706.56000	 24.40	
 18.698	142.952	  1.06826	  0.01504	  1.04097	  0.91701	  0.12135	 -0.05382	  1.26832	706.59198	 24.40	
 18.699	137.625	  1.06923	  0.04787	  0.99746	  0.97081	  0.08102	 -0.05360	  1.27061	706.62299	 24.40	
 18.705	132.343	  1.07401	  0.08595	  0.95166	  1.02264	  0.04624	 -0.05588	  1.27534	706.66803	 24.40	
 18.713	127.067	  1.07547	  0.12655	  0.90085	  1.06919	  0.01413	 -0.05538	  1.27879	706.64697	 24.40	
 18.700	121.794	  1.06392	  0.16914	  0.83535	  1.09773	 -0.01521	 -0.05172	  1.26669	706.59802	 24.40	
 18.698	116.504	  1.06291	  0.21764	  0.77486	  1.13057	 -0.03862	 -0.04907	  1.26764	706.75201	 24.40	
 18.707	111.165	  1.05996	  0.26767	  0.71148	  1.15600	 -0.05989	 -0.04834	  1.26602	706.65997	 24.40	
 18.690	105.863	  1.05369	  0.32151	  0.64429	  1.17020	 -0.07378	 -0.04557	  1.25983	706.65100	 24.40	
 18.696	100.583	  1.05586	  0.37898	  0.58417	  1.18725	 -0.08372	 -0.04677	  1.26390	706.60602	 24.40	
 18.700	 95.309	  1.05663	  0.43832	  0.52214	  1.19781	 -0.09108	 -0.04667	  1.26607	706.80200	 24.40	
 18.700	 90.000	  1.06017	  0.50172	  0.46065	  1.20458	 -0.09324	 -0.04823	  1.27140	706.61102	 24.40	
 18.700	 84.691	  1.04954	  0.55925	  0.39521	  1.19079	 -0.09149	 -0.04899	  1.26157	706.71301	 24.40	
 18.696	 79.417	  1.04652	  0.61918	  0.33605	  1.17968	 -0.08627	 -0.04894	  1.25924	706.62000	 24.40	
 18.690	 74.137	  1.04684	  0.68307	  0.27887	  1.16472	 -0.07566	 -0.04781	  1.26213	706.66199	 24.40	
 18.707	 68.835	  1.04914	  0.74725	  0.22298	  1.14721	 -0.06419	 -0.04999	  1.26722	706.66199	 24.40	
 18.698	 63.496	  1.04775	  0.80974	  0.17386	  1.11602	 -0.04661	 -0.04584	  1.26571	706.53497	 24.40	
 18.700	 58.206	  1.04355	  0.86469	  0.12613	  1.07804	 -0.02390	 -0.04883	  1.26149	706.64502	 24.40	
 18.713	 52.933	  1.04426	  0.92125	  0.08223	  1.04065	  0.00353	 -0.04769	  1.26378	706.69299	 24.40	
 18.705	 47.657	  1.04438	  0.97326	  0.04300	  0.99596	  0.03635	 -0.04682	  1.26514	706.61102	 24.40	
 18.699	 42.375	  1.04066	  1.01803	  0.00669	  0.94462	  0.07145	 -0.04387	  1.26113	706.69800	 24.40	
 18.698	 37.048	  1.04162	  1.06403	 -0.02507	  0.89216	  0.11194	 -0.04185	  1.26386	706.75500	 24.40	
 18.704	 31.745	  1.04621	  1.10795	 -0.05437	  0.83961	  0.15700	 -0.04132	  1.27116	706.74902	 24.30	
 18.695	 26.463	  1.04207	  1.13619	 -0.07580	  0.77700	  0.20555	 -0.03920	  1.26675	706.74402	 24.40	
 18.706	 21.182	  1.04371	  1.16502	 -0.09526	  0.71919	  0.25559	 -0.03893	  1.26942	706.66998	 24.30	
 18.691	 15.915	  1.04542	  1.18905	 -0.11181	  0.65663	  0.31178	 -0.03742	  1.27200	706.76898	 24.40	
 18.703	 10.559	  1.03917	  1.19583	 -0.12090	  0.58902	  0.36752	 -0.03770	  1.26383	706.71503	 24.30	
 18.709	  5.325	  1.03893	  1.20409	 -0.12695	  0.52859	  0.42384	 -0.04224	  1.26435	706.81299	 24.40	
 18.700	  0.000	  1.04264	  1.21187	 -0.12875	  0.46690	  0.48966	 -0.03808	  1.26938	706.72302	 24.40	
 18.709	 -5.325	  1.04058	  1.20630	 -0.12680	  0.40392	  0.55131	 -0.03785	  1.26633	706.83099	 24.40	
 18.703	-10.559	  1.04182	  1.19754	 -0.11821	  0.34817	  0.61363	 -0.03923	  1.26802	706.69800	 24.40	
 18.691	-15.915	  1.04351	  1.18245	 -0.10634	  0.29095	  0.67870	 -0.03967	  1.26856	706.78802	 24.40	
 18.706	-21.182	  1.04510	  1.16277	 -0.09191	  0.23753	  0.74181	 -0.04070	  1.27056	706.72400	 24.30	
 18.695	-26.463	  1.04429	  1.13363	 -0.07398	  0.18483	  0.80158	 -0.04246	  1.26952	706.65698	 24.40	
 18.704	-31.745	  1.04517	  1.10050	 -0.04924	  0.13815	  0.86156	 -0.04282	  1.27040	706.73700	 24.30	
 18.698	-37.048	  1.04381	  1.05858	 -0.02101	  0.09365	  0.91687	 -0.04384	  1.26659	706.74597	 24.30	
 18.699	-42.375	  1.04736	  1.01676	  0.01193	  0.05418	  0.97173	 -0.04812	  1.27049	706.67401	 24.30	
 18.705	-47.657	  1.04334	  0.96324	  0.04942	  0.01823	  1.01711	 -0.04609	  1.26561	706.72101	 24.30	
 18.713	-52.933	  1.04384	  0.90986	  0.08949	 -0.01393	  1.06108	 -0.04609	  1.26621	706.65302	 24.30	
 18.700	-58.206	  1.04728	  0.85510	  0.13605	 -0.04051	  1.10185	 -0.04747	  1.26834	706.63898	 24.30	
 18.698	-63.496	  1.05116	  0.79730	  0.18728	 -0.06129	  1.13786	 -0.04654	  1.27093	706.68103	 24.30	
 18.707	-68.835	  1.04995	  0.73405	  0.23880	 -0.08149	  1.16348	 -0.04489	  1.26862	706.65100	 24.30	
 18.690	-74.137	  1.04935	  0.66993	  0.29283	 -0.09539	  1.18214	 -0.04351	  1.26681	706.75500	 24.30	
 18.696	-79.417	  1.05041	  0.60741	  0.35035	 -0.10699	  1.19882	 -0.04599	  1.26782	706.72400	 24.30	
 18.700	-84.691	  1.04949	  0.54406	  0.41053	 -0.11166	  1.20661	 -0.04744	  1.26575	706.74103	 24.30	
 18.700	-90.000	  1.05604	  0.48080	  0.47583	 -0.11514	  1.21562	 -0.05147	  1.27133	706.73999	 24.30	
 18.700	-95.309	  1.05794	  0.42174	  0.53826	 -0.11311	  1.21483	 -0.04970	  1.27380	706.68701	 24.30	
 18.696	-100.583	  1.05890	  0.36351	  0.60122	 -0.10500	  1.20502	 -0.05125	  1.27322	706.65399	 24.30	
 18.690	-105.863	  1.05711	  0.30333	  0.66312	 -0.09559	  1.18681	 -0.05474	  1.26946	706.76099	 24.30	
 18.707	-111.165	  1.05968	  0.25094	  0.72788	 -0.07844	  1.16736	 -0.05686	  1.27204	706.68103	 24.30	
 18.698	-116.504	  1.06073	  0.19970	  0.78976	 -0.05843	  1.13925	 -0.05810	  1.27155	706.72302	 24.30	
 18.700	-121.794	  1.05927	  0.15123	  0.84781	 -0.03425	  1.10487	 -0.05671	  1.26943	706.66498	 24.30	
 18.713	-127.067	  1.06482	  0.10846	  0.90862	 -0.00488	  1.07032	 -0.05725	  1.27506	706.54102	 24.30	
 18.705	-132.343	  1.06021	  0.06785	  0.95511	  0.02610	  1.02080	 -0.05813	  1.26776	706.73199	 24.30	
 18.699	-137.625	  1.06079	  0.03361	  1.00397	  0.06605	  0.97060	 -0.05902	  1.26620	706.63898	 24.30	
 18.698	-142.952	  1.06351	  0.00165	  1.05102	  0.10683	  0.91976	 -0.06007	  1.26962	706.58398	 24.30	
 18.704	-148.255	  1.06432	 -0.02502	  1.09061	  0.15311	  0.86300	 -0.06033	  1.26890	706.61200	 24.30	
 18.695	-153.537	  1.06416	 -0.04644	  1.12169	  0.20227	  0.80274	 -0.05887	  1.26782	706.61401	 24.30	
 18.706	-158.818	  1.06853	 -0.06749	  1.15377	  0.25193	  0.74606	 -0.05812	  1.27214	706.63098	 24.30	
 18.691	-164.085	  1.07003	 -0.07936	  1.17495	  0.30785	  0.68413	 -0.05627	  1.27293	706.45697	 24.30	
 18.703	-169.441	  1.07015	 -0.08978	  1.19000	  0.36730	  0.61887	 -0.05861	  1.27215	706.54700	 24.30	
 18.709	-174.675	  1.06762	 -0.09473	  1.19522	  0.42591	  0.55481	 -0.05752	  1.26795	706.49799	 24.30	
 18.700	180.000	  1.06675	 -0.09435	  1.19562	  0.48671	  0.49220	 -0.05677	  1.26653	706.51898	 24.30	
 20.400	180.000	  1.02529	 -0.17982	  1.22823	  0.45023	  0.45451	 -0.05402	  1.27335	706.63397	 24.30	
 20.401	-175.153	  1.02254	 -0.17896	  1.22372	  0.38820	  0.51489	 -0.05557	  1.27083	706.66803	 24.30	
 20.407	-170.264	  1.02294	 -0.17498	  1.21730	  0.32701	  0.57886	 -0.05424	  1.27325	706.55200	 24.30	
 20.410	-165.423	  1.01986	 -0.16830	  1.20152	  0.26694	  0.64114	 -0.05514	  1.27039	706.61401	 24.20	
 20.392	-160.496	  1.02168	 -0.15509	  1.18459	  0.21351	  0.70468	 -0.05664	  1.27293	706.45398	 24.30	
 20.401	-155.705	  1.02214	 -0.13843	  1.16131	  0.16028	  0.76825	 -0.05683	  1.27445	706.51001	 24.30	
 20.405	-150.835	  1.01787	 -0.11863	  1.12674	  0.10988	  0.82554	 -0.05774	  1.27004	706.51801	 24.30	
 20.397	-145.903	  1.01830	 -0.09372	  1.09106	  0.06322	  0.88555	 -0.05916	  1.27230	706.54999	 24.20	
 20.392	-141.062	  1.01679	 -0.06539	  1.04961	  0.02137	  0.93995	 -0.06007	  1.27155	706.54303	 24.20	
 20.396	-136.227	  1.01108	 -0.03332	  0.99979	 -0.01726	  0.98726	 -0.05673	  1.26639	706.47302	 24.20	
 20.408	-131.372	  1.01074	  0.00155	  0.94958	 -0.05501	  1.03646	 -0.05570	  1.26742	706.53302	 24.20	
 20.410	-126.511	  1.01336	  0.04229	  0.89769	 -0.08545	  1.08320	 -0.05594	  1.27057	706.61603	 24.20	
 20.400	-121.604	  1.01318	  0.08444	  0.84143	 -0.11643	  1.12417	 -0.05490	  1.27380	706.37201	 24.20	
 20.403	-116.741	  1.00550	  0.13134	  0.77568	 -0.13823	  1.14994	 -0.05466	  1.26557	706.36102	 24.20	
 20.413	-111.900	  1.00509	  0.17919	  0.71491	 -0.15949	  1.17806	 -0.05547	  1.26531	706.54303	 24.20	
 20.398	-107.004	  1.00506	  0.23315	  0.65368	 -0.17530	  1.20199	 -0.05251	  1.26695	706.56299	 24.20	
 20.394	-102.132	  0.99825	  0.28860	  0.58630	 -0.18549	  1.21129	 -0.05051	  1.26023	706.48199	 24.20	
 20.403	-97.332	  1.00396	  0.34723	  0.52731	 -0.19460	  1.22911	 -0.04753	  1.26786	706.48999	 24.20	
 20.392	-92.440	  1.00258	  0.40810	  0.46248	 -0.19961	  1.23436	 -0.04289	  1.26826	706.47400	 24.20	
 20.392	-87.560	  1.00368	  0.47018	  0.40169	 -0.19944	  1.23594	 -0.04557	  1.26891	706.46698	 24.20	
 20.403	-82.668	  0.99393	  0.52936	  0.33555	 -0.19803	  1.22239	 -0.04402	  1.26011	706.50500	 24.20	
 20.394	-77.868	  0.99835	  0.59394	  0.28102	 -0.18881	  1.21554	 -0.04160	  1.26497	706.51898	 24.20	
 20.398	-72.996	  0.99837	  0.65899	  0.22241	 -0.18034	  1.20220	 -0.04186	  1.26889	706.59998	 24.20	
 20.413	-68.100	  0.99567	  0.72104	  0.16811	 -0.16391	  1.17732	 -0.04314	  1.26514	706.63397	 24.20	
 20.403	-63.259	  0.99566	  0.78198	  0.11744	 -0.14520	  1.14967	 -0.04511	  1.26495	706.51898	 24.20	
 20.400	-58.396	  0.99527	  0.84200	  0.07178	 -0.12099	  1.11597	 -0.04109	  1.26541	706.43402	 24.20	
 20.410	-53.489	  0.99910	  0.90545	  0.02501	 -0.09578	  1.08280	 -0.03973	  1.27254	706.43402	 24.20	
 20.408	-48.628	  0.99186	  0.95394	 -0.01859	 -0.06790	  1.03480	 -0.04325	  1.26675	706.42902	 24.20	
 20.396	-43.773	  0.99679	  1.00779	 -0.05217	 -0.02968	  0.98974	 -0.04423	  1.26994	706.58002	 24.20	
 20.392	-38.938	  0.99319	  1.05229	 -0.08717	  0.00546	  0.93567	 -0.04289	  1.26691	706.47699	 24.20	
 20.397	-34.097	  0.99575	  1.09562	 -0.11324	  0.05022	  0.88221	 -0.04480	  1.27032	706.50800	 24.20	
 20.405	-29.165	  0.99484	  1.13345	 -0.14109	  0.09376	  0.82405	 -0.04182	  1.27035	706.49298	 24.20	
 20.401	-24.295	  0.99487	  1.16501	 -0.16395	  0.14140	  0.76376	 -0.04150	  1.27072	706.48798	 24.20	
 20.392	-19.504	  0.99495	  1.18881	 -0.17776	  0.19531	  0.70203	 -0.04016	  1.26883	706.46301	 24.20	
 20.410	-14.577	  0.99276	  1.20940	 -0.19449	  0.24714	  0.63897	 -0.03774	  1.26984	706.41400	 24.20	
 20.407	 -9.736	  0.99339	  1.22484	 -0.20691	  0.30354	  0.57429	 -0.03738	  1.27163	706.43201	 24.20	
 20.401	 -4.847	  0.99277	  1.23194	 -0.21009	  0.36380	  0.51095	 -0.03624	  1.26924	706.50403	 24.10	
 20.400	  0.000	  0.99343	  1.23599	 -0.21331	  0.42441	  0.44943	 -0.03399	  1.27051	706.54999	 24.20	
 20.401	  4.847	  0.99409	  1.23568	 -0.21383	  0.48571	  0.38787	 -0.03523	  1.27232	706.51202	 24.10	
 20.407	  9.736	  0.98921	  1.22314	 -0.20768	  0.54728	  0.32635	 -0.03295	  1.26613	706.57501	 24.10	
 20.410	 14.577	  0.99129	  1.21081	 -0.19736	  0.61156	  0.26837	 -0.03560	  1.26737	706.48798	 24.10	
 20.392	 19.504	  0.99643	  1.19758	 -0.18388	  0.67822	  0.21530	 -0.03440	  1.27342	706.42297	 24.10	
 20.401	 24.295	  0.99580	  1.17272	 -0.16862	  0.73903	  0.16276	 -0.03663	  1.27243	706.37201	 24.10	
 20.405	 29.165	  0.98978	  1.13487	 -0.14638	  0.79569	  0.11131	 -0.03946	  1.26499	706.50201	 24.10	
 20.397	 34.097	  0.99417	  1.10417	 -0.12440	  0.85673	  0.06486	 -0.03919	  1.26966	706.41699	 24.10	
 20.392	 38.938	  0.99812	  1.06645	 -0.09463	  0.91573	  0.02358	 -0.04128	  1.27273	706.36102	 24.10	
 20.396	 43.773	  0.99604	  1.01826	 -0.06043	  0.96640	 -0.01324	 -0.04354	  1.26876	706.53601	 24.10	
 20.408	 48.628	  0.99630	  0.96939	 -0.02391	  1.01383	 -0.04722	 -0.04243	  1.26819	706.39398	 24.10	
 20.410	 53.489	  0.99780	  0.91784	  0.01517	  1.05851	 -0.07788	 -0.04428	  1.26813	706.45099	 24.10	
 20.400	 58.396	  0.99943	  0.86183	  0.05887	  1.10099	 -0.10721	 -0.04281	  1.26994	706.50098	 24.10	
 20.403	 63.259	  0.99939	  0.80082	  0.10808	  1.13475	 -0.12871	 -0.04434	  1.26721	706.45001	 24.10	
 20.413	 68.100	  1.00284	  0.74393	  0.15632	  1.16381	 -0.14681	 -0.04905	  1.26929	706.44800	 24.10	
 20.398	 72.996	  1.00468	  0.68221	  0.21062	  1.18860	 -0.16175	 -0.04675	  1.26968	706.52600	 24.10	
 20.394	 77.868	  1.00877	  0.62147	  0.26875	  1.21042	 -0.17363	 -0.04664	  1.27276	706.37500	 24.10	
 20.403	 82.668	  1.00211	  0.55407	  0.32426	  1.21318	 -0.17984	 -0.04384	  1.26305	706.46503	 24.10	
 20.392	 87.560	  1.00931	  0.49503	  0.38791	  1.22539	 -0.18270	 -0.04507	  1.26939	706.51801	 24.10	
 20.392	 92.440	  1.01605	  0.43473	  0.45420	  1.23204	 -0.18261	 -0.04415	  1.27540	706.44598	 24.10	
 20.403	 97.332	  1.01610	  0.37358	  0.51740	  1.22761	 -0.17848	 -0.04294	  1.27491	706.43103	 24.10	
 20.394	102.132	  1.01388	  0.31300	  0.57906	  1.21353	 -0.17185	 -0.04094	  1.27031	706.41498	 24.10	
 20.398	107.004	  1.01765	  0.25871	  0.64401	  1.19952	 -0.15942	 -0.04274	  1.27216	706.38702	 24.10	
 20.413	111.900	  1.01750	  0.20501	  0.70673	  1.17698	 -0.14377	 -0.04143	  1.27090	706.55798	 24.10	
 20.403	116.741	  1.02005	  0.15313	  0.77027	  1.15271	 -0.12674	 -0.04720	  1.27315	706.56897	 24.10	
 20.400	121.604	  1.02309	  0.10791	  0.83223	  1.12082	 -0.10112	 -0.05252	  1.27530	706.55200	 24.10	
 20.410	126.511	  1.01833	  0.06221	  0.88509	  1.07736	 -0.07426	 -0.05007	  1.26807	706.57501	 24.10	
 20.408	131.372	  1.02369	  0.02238	  0.94417	  1.03759	 -0.04233	 -0.05075	  1.27239	706.57202	 24.10	
 20.396	136.227	  1.02733	 -0.01403	  0.99753	  0.99154	 -0.00576	 -0.05455	  1.27461	706.54401	 24.00	
 20.392	141.062	  1.02509	 -0.04860	  1.04164	  0.93980	  0.02916	 -0.05368	  1.27301	706.59802	 24.00	
 20.397	145.903	  1.02264	 -0.07778	  1.08105	  0.88223	  0.07178	 -0.05493	  1.26921	706.50800	 24.00	
 20.405	150.835	  1.02187	 -0.10358	  1.11800	  0.82178	  0.11878	 -0.05564	  1.26752	706.42499	 24.00	
 20.401	155.705	  1.01936	 -0.12506	  1.14615	  0.75946	  0.16725	 -0.05648	  1.26375	706.50098	 24.00	
 20.392	160.496	  1.02358	 -0.14251	  1.17654	  0.70315	  0.21894	 -0.05775	  1.26977	706.57202	 24.00	
 20.410	165.423	  1.02543	 -0.15940	  1.20023	  0.63897	  0.27532	 -0.05556	  1.27185	706.48499	 24.00	
 20.407	170.264	  1.02658	 -0.17009	  1.21714	  0.57630	  0.33306	 -0.05550	  1.27398	706.44598	 24.00	
 20.401	175.153	  1.02324	 -0.18008	  1.22403	  0.51177	  0.38893	 -0.05415	  1.27241	706.47900	 24.00	
  0.141	 45.000	  1.27949	  0.67948	  0.65685	  0.67778	  0.66886	  0.00796	  1.26794	706.39203	 24.00	
  4.001	128.691	  1.27882	  0.58396	  0.73767	  0.77483	  0.55756	  0.00471	  1.27148	706.35303	 24.00	
  4.002	 76.995	  1.28003	  0.70756	  0.60907	  0.80493	  0.53288	  0.00503	  1.27354	706.54303	 24.00	
  4.002	 25.892	  1.27268	  0.80881	  0.51226	  0.71619	  0.60099	  0.00291	  1.26898	706.36298	 24.00	
  4.002	-25.892	  1.27996	  0.81176	  0.51565	  0.58945	  0.73636	 -0.00032	  1.27608	706.40900	 24.00	
  4.002	-76.995	  1.28036	  0.70382	  0.61035	  0.51541	  0.82247	 -0.00080	  1.27422	706.39203	 24.00	
  4.001	-128.691	  1.27810	  0.57734	  0.74050	  0.54146	  0.79007	 -0.00080	  1.27099	706.33301	 24.00	
  4.000	180.000	  1.27657	  0.52614	  0.79903	  0.65317	  0.66574	  0.00084	  1.26786	706.39203	 24.00	
  8.000	180.000	  1.25723	  0.35511	  0.94099	  0.62919	  0.64203	 -0.01309	  1.27218	706.53998	 24.00	
  7.991	-152.370	  1.25769	  0.38407	  0.90392	  0.48989	  0.78832	 -0.01502	  1.27453	706.41498	 24.00	
  7.997	-124.550	  1.25022	  0.46913	  0.79634	  0.38564	  0.90189	 -0.01564	  1.26730	706.44299	 24.00	
  8.006	-96.837	  1.24990	  0.60098	  0.65258	  0.33569	  0.96109	 -0.01869	  1.27069	706.49597	 24.00	
  7.988	-69.228	  1.24540	  0.74810	  0.50678	  0.35099	  0.93815	 -0.02048	  1.26725	706.53497	 23.90	
  7.997	-41.563	  1.24286	  0.87538	  0.39213	  0.42244	  0.84917	 -0.01834	  1.26705	706.41699	 23.90	
  8.008	-13.821	  1.24749	  0.95324	  0.33198	  0.54800	  0.71451	 -0.01721	  1.27223	706.36902	 23.90	
  8.008	 13.821	  1.24650	  0.95516	  0.32938	  0.69298	  0.56644	 -0.01465	  1.27023	706.39502	 23.90	
  7.997	 41.563	  1.24935	  0.88381	  0.39123	  0.83243	  0.44320	 -0.01169	  1.27344	706.32898	 23.90	
  7.988	 69.228	  1.25352	  0.75853	  0.50510	  0.92540	  0.37035	 -0.01027	  1.27403	706.41400	 23.90	
  8.006	 96.837	  1.25289	  0.61099	  0.64820	  0.94559	  0.35460	 -0.00994	  1.27182	706.51001	 23.90	
  7.997	124.550	  1.25865	  0.48116	  0.79347	  0.89329	  0.40189	 -0.01107	  1.27524	706.36902	 23.90	
  7.991	152.370	  1.25321	  0.38709	  0.89645	  0.77327	  0.49969	 -0.01244	  1.26678	706.43201	 23.90	
 12.009	161.059	  1.20532	  0.19765	  1.02745	  0.73552	  0.44993	 -0.03469	  1.26884	706.50098	 23.90	
 12.013	142.081	  1.20742	  0.26212	  0.94968	  0.87990	  0.32592	 -0.03323	  1.27219	706.53198	 23.90	
 12.006	123.113	  1.20529	  0.36304	  0.82725	  0.98889	  0.23523	 -0.03252	  1.27229	706.36700	 23.90	
 12.007	104.200	  1.20054	  0.49279	  0.67794	  1.05009	  0.18357	 -0.03207	  1.26953	706.48700	 23.90	
 11.989	 85.301	  1.19804	  0.64056	  0.52428	  1.06017	  0.17320	 -0.03231	  1.27108	706.36298	 23.90	
 12.013	 66.294	  1.19168	  0.78863	  0.38176	  1.01508	  0.20237	 -0.03183	  1.26805	706.42499	 23.90	
 12.012	 47.388	  1.19752	  0.92633	  0.26936	  0.92938	  0.27549	 -0.03037	  1.27611	706.40601	 23.90	
 11.990	 28.440	  1.18674	  1.01752	  0.18709	  0.79483	  0.38026	 -0.03412	  1.26736	706.39099	 23.90	
 11.991	  9.464	  1.19135	  1.07310	  0.14874	  0.64945	  0.51815	 -0.03509	  1.27121	706.38397	 23.90	
 11.991	 -9.464	  1.18923	  1.07010	  0.15009	  0.49880	  0.66809	 -0.03757	  1.27065	706.41699	 23.90	
 11.990	-28.440	  1.18795	  1.01455	  0.19252	  0.36377	  0.81643	 -0.03629	  1.26889	706.37201	 23.90	
 12.012	-47.388	  1.19016	  0.91311	  0.27617	  0.25902	  0.94413	 -0.03962	  1.26869	706.38000	 23.90	
 12.013	-66.294	  1.19212	  0.77884	  0.38986	  0.18510	  1.03594	 -0.04216	  1.27005	706.33801	 23.90	
 11.989	-85.301	  1.19295	  0.62651	  0.53416	  0.15980	  1.07233	 -0.04081	  1.26825	706.33301	 23.90	
 12.007	-104.200	  1.19334	  0.47853	  0.68582	  0.16992	  1.05921	 -0.03958	  1.26495	706.40100	 23.90	
 12.006	-123.113	  1.19839	  0.35168	  0.83193	  0.22170	  0.99684	 -0.03697	  1.26731	706.46997	 23.90	
 12.013	-142.081	  1.19932	  0.25246	  0.95183	  0.31327	  0.88565	 -0.03507	  1.26749	706.37500	 23.90	
 12.009	-161.059	  1.20296	  0.19344	  1.03197	  0.43976	  0.74581	 -0.03765	  1.26937	706.38599	 23.90	
 16.000	180.000	  1.13064	  0.00821	  1.14957	  0.53033	  0.53561	 -0.05741	  1.26843	706.44299	 23.90	
 15.990	-165.604	  1.12884	  0.02243	  1.12967	  0.38509	  0.68709	 -0.05792	  1.26694	706.50098	 23.90	
 16.002	-151.165	  1.12842	  0.06630	  1.07211	  0.25957	  0.83390	 -0.05757	  1.27004	706.44000	 23.90	
 16.002	-136.836	  1.12313	  0.13454	  0.97355	  0.15040	  0.96198	 -0.05561	  1.26577	706.42902	 23.90	
 15.995	-122.439	  1.12442	  0.23411	  0.85076	  0.07209	  1.06645	 -0.05803	  1.26931	706.45898	 23.90	
 15.993	-107.966	  1.12142	  0.35441	  0.70644	  0.01706	  1.13619	 -0.05773	  1.26931	706.34698	 23.90	
 16.005	-93.629	  1.11836	  0.49254	  0.55608	 -0.00591	  1.16470	 -0.05864	  1.26884	706.37000	 23.90	
 15.992	-79.234	  1.11496	  0.64289	  0.40994	  0.00204	  1.15476	 -0.05275	  1.26809	706.42297	 23.90	
 16.009	-64.774	  1.11661	  0.79420	  0.27859	  0.03973	  1.10706	 -0.05396	  1.27187	706.30103	 23.90	
 15.997	-50.364	  1.11392	  0.92846	  0.16641	  0.10511	  1.01741	 -0.05347	  1.26861	706.50201	 23.90	
 15.997	-36.045	  1.11321	  1.04132	  0.08057	  0.19635	  0.90096	 -0.04874	  1.27099	706.38702	 23.90	
 16.000	-21.597	  1.11352	  1.12157	  0.01947	  0.31025	  0.76259	 -0.04756	  1.27187	706.34601	 23.80	
 16.003	 -7.169	  1.11193	  1.16269	 -0.01307	  0.44597	  0.61117	 -0.04738	  1.27178	706.32397	 23.80	
 16.003	  7.169	  1.11154	  1.16245	 -0.01003	  0.59197	  0.46657	 -0.04502	  1.27042	706.35602	 23.80	
 16.000	 21.597	  1.11446	  1.12748	  0.01467	  0.74073	  0.33058	 -0.04485	  1.27355	706.34698	 23.90	
 15.997	 36.045	  1.11187	  1.04722	  0.07287	  0.87829	  0.21232	 -0.04674	  1.26884	706.34399	 23.90	
 15.997	 50.364	  1.11546	  0.94092	  0.15411	  1.00022	  0.11640	 -0.04872	  1.27115	706.25702	 23.80	
 16.009	 64.774	  1.11786	  0.80750	  0.26591	  1.09010	  0.05209	 -0.04714	  1.27131	706.43201	 23.80	
 15.992	 79.234	  1.12118	  0.65943	  0.39625	  1.14412	  0.01101	 -0.05101	  1.27201	706.44000	 23.80	
 16.005	 93.629	  1.12253	  0.51085	  0.54334	  1.15405	  0.00637	 -0.05028	  1.26900	706.43701	 23.80	
 15.993	107.966	  1.12650	  0.36969	  0.69418	  1.12803	  0.02598	 -0.04932	  1.27049	706.36102	 23.80	
 15.995	122.439	  1.12947	  0.24731	  0.84122	  1.06035	  0.07940	 -0.05288	  1.26990	706.33801	 23.80	
 16.002	136.836	  1.13640	  0.14293	  0.97380	  0.96195	  0.15604	 -0.05422	  1.27556	706.24200	 23.90	
 16.002	151.165	  1.13627	  0.07073	  1.07020	  0.83134	  0.26343	 -0.05525	  1.27503	706.45001	 23.90	
 15.990	165.604	  1.13232	  0.02402	  1.12946	  0.68114	  0.39257	 -0.05665	  1.26985	706.45099	 23.90	
 20.003	168.362	  1.03871	 -0.14518	  1.20664	  0.60957	  0.32340	 -0.05546	  1.27444	706.23102	 23.90	
 20.008	156.764	  1.03879	 -0.11179	  1.15844	  0.75692	  0.19272	 -0.05638	  1.27417	706.30499	 23.90	
 20.000	145.147	  1.03615	 -0.05406	  1.07386	  0.89342	  0.08206	 -0.05382	  1.27104	706.35199	 23.90	
 19.995	133.545	  1.03735	  0.02418	  0.96800	  1.01649	 -0.00812	 -0.05299	  1.27356	706.25897	 23.90	
 20.009	121.926	  1.03507	  0.12044	  0.83833	  1.11485	 -0.08049	 -0.05347	  1.27480	706.36700	 23.90	
 20.005	110.327	  1.02852	  0.23671	  0.69203	  1.17906	 -0.12909	 -0.04412	  1.27039	706.31598	 23.90	
 19.989	 98.733	  1.02801	  0.36798	  0.54425	  1.21799	 -0.15768	 -0.04569	  1.27349	706.38300	 23.90	
 19.999	 87.075	  1.02550	  0.51183	  0.39550	  1.22334	 -0.16213	 -0.04772	  1.27417	706.35199	 23.90	
 19.992	 75.457	  1.02268	  0.65875	  0.25507	  1.19743	 -0.14739	 -0.04760	  1.27439	706.43201	 23.90	
 20.009	 63.844	  1.01540	  0.80066	  0.12911	  1.13734	 -0.11156	 -0.04421	  1.27216	706.47699	 23.90	
 19.989	 52.269	  1.01289	  0.93306	  0.02337	  1.04941	 -0.05254	 -0.04503	  1.27108	706.55499	 23.90	
 19.999	 40.602	  1.01256	  1.05135	 -0.06430	  0.93619	  0.02807	 -0.04294	  1.27460	706.45099	 23.80	
 20.004	 29.051	  1.00531	  1.13693	 -0.12904	  0.79778	  0.12976	 -0.03992	  1.26754	706.49500	 23.80	
 20.005	 17.433	  1.00597	  1.19858	 -0.17014	  0.65673	  0.24935	 -0.03616	  1.27074	706.38300	 23.90	
 20.006	  5.780	  1.00236	  1.22495	 -0.19114	  0.50524	  0.38564	 -0.03591	  1.26639	706.43201	 23.90	
 20.006	 -5.780	  1.00589	  1.22879	 -0.19321	  0.36179	  0.53153	 -0.03620	  1.27217	706.36102	 23.90	
 20.005	-17.433	  1.00480	  1.19225	 -0.16588	  0.22981	  0.67910	 -0.03819	  1.26841	706.41699	 23.80	
 20.004	-29.051	  1.00839	  1.13095	 -0.12189	  0.11187	  0.82503	 -0.04059	  1.26985	706.35999	 23.90	
 19.999	-40.602	  1.00969	  1.03872	 -0.05661	  0.01125	  0.95605	 -0.04422	  1.27073	706.47699	 23.80	
 19.989	-52.269	  1.01331	  0.92040	  0.03318	 -0.06807	  1.06946	 -0.04631	  1.27314	706.37701	 23.90	
 20.009	-63.844	  1.00951	  0.78119	  0.14019	 -0.12556	  1.14916	 -0.04194	  1.26710	706.31799	 23.90	
 19.992	-75.457	  1.01291	  0.63595	  0.26419	 -0.16520	  1.20589	 -0.04169	  1.26978	706.35498	 23.90	
 19.999	-87.075	  1.01276	  0.48653	  0.40293	 -0.18029	  1.22735	 -0.04332	  1.26704	706.20001	 23.90	
 19.989	-98.733	  1.01712	  0.34408	  0.55396	 -0.17001	  1.22019	 -0.05038	  1.26748	706.28497	 23.90	
 20.005	-110.327	  1.02425	  0.21346	  0.70485	 -0.14518	  1.18845	 -0.05341	  1.27401	706.40601	 23.90	
 20.009	-121.926	  1.02450	  0.09842	  0.84687	 -0.09483	  1.11698	 -0.05511	  1.27316	706.27399	 23.90	
 19.995	-133.545	  1.02534	  0.00234	  0.97364	 -0.02168	  1.01574	 -0.05684	  1.26979	706.26801	 23.90	
 20.000	-145.147	  1.02822	 -0.07079	  1.08007	  0.07271	  0.89354	 -0.05967	  1.27012	706.23700	 23.90	
 20.008	-156.764	  1.03244	 -0.12132	  1.16070	  0.18705	  0.75689	 -0.05875	  1.27271	706.27600	 23.80	
 20.003	-168.362	  1.03264	 -0.15087	  1.20459	  0.31533	  0.61034	 -0.05577	  1.27060	706.24200	 23.90	
 20.000	180.000	  1.03438	 -0.15964	  1.21972	  0.45842	  0.46182	 -0.05602	  1.26985	706.20801	 23.90	
