FileType=PCF
NHL=14
Date=05/31/19	08:27:24
Facility=APL
Serial=16071-13
Customer=NASA
NP=6
Mach=0.036000
Calibration=1:1
CalPts=490
TstPts=95
PortNumbering=AP Standard
Units=Torr C m/s kg/m^3 deg mm 
Theta[deg]	Phi[deg]	P1[Torr]	P2[Torr]	P3[Torr]	P4[Torr]	P5[Torr]	P6[Torr]	Pt[Torr]	Ps[Abs,Torr]	Ts[C]	
  0.000	  0.000	  0.60970	  0.27512	  0.28269	  0.29596	  0.25994	  0.05600	  0.61192	702.12000	 42.40	
  1.691	128.401	  0.60770	  0.25686	  0.29753	  0.31033	  0.23965	  0.05446	  0.60985	702.03998	 42.30	
  1.692	 77.194	  0.60610	  0.28033	  0.26939	  0.32162	  0.22713	  0.05289	  0.61105	701.96997	 42.10	
  1.699	 26.182	  0.60537	  0.29801	  0.25752	  0.30772	  0.24112	  0.05633	  0.60832	702.12000	 42.00	
  1.699	-26.182	  0.60442	  0.30075	  0.25438	  0.28285	  0.26198	  0.05570	  0.60807	702.14001	 41.90	
  1.692	-77.194	  0.60630	  0.28003	  0.27202	  0.26514	  0.28612	  0.05522	  0.60867	702.08002	 41.80	
  1.691	-128.401	  0.60901	  0.26307	  0.29255	  0.27309	  0.27986	  0.05641	  0.61157	702.09998	 41.70	
  1.700	180.000	  0.60554	  0.24303	  0.31094	  0.29355	  0.25384	  0.05500	  0.60833	702.09998	 41.60	
  3.400	180.000	  0.60574	  0.21061	  0.34108	  0.28771	  0.25461	  0.04831	  0.61091	702.14001	 41.50	
  3.388	-152.325	  0.60903	  0.22412	  0.33379	  0.26157	  0.28595	  0.04958	  0.61221	702.08002	 41.40	
  3.397	-124.529	  0.60818	  0.23717	  0.31603	  0.24614	  0.29853	  0.05039	  0.61014	702.09998	 41.30	
  3.399	-96.763	  0.60383	  0.26282	  0.28365	  0.23985	  0.30768	  0.05072	  0.60593	702.14001	 41.20	
  3.394	-69.283	  0.60314	  0.29351	  0.25697	  0.24404	  0.30416	  0.05516	  0.60693	702.04999	 41.10	
  3.400	-41.398	  0.60821	  0.31928	  0.23566	  0.25480	  0.29335	  0.05494	  0.60971	702.09998	 41.00	
  3.401	-14.021	  0.59927	  0.33114	  0.21562	  0.26878	  0.26991	  0.05384	  0.60541	702.09998	 40.90	
  3.401	 14.021	  0.60016	  0.33173	  0.21567	  0.30111	  0.23687	  0.05241	  0.60393	702.04999	 40.90	
  3.400	 41.398	  0.60352	  0.31731	  0.23057	  0.33108	  0.21190	  0.05317	  0.60828	702.01001	 40.80	
  3.394	 69.283	  0.60484	  0.28845	  0.25504	  0.34668	  0.20229	  0.05147	  0.61042	702.09003	 40.70	
  3.399	 96.763	  0.59731	  0.25666	  0.28205	  0.34957	  0.19439	  0.05357	  0.60305	702.04999	 40.60	
  3.397	124.529	  0.60159	  0.23776	  0.30260	  0.33623	  0.20752	  0.04964	  0.60612	702.04999	 40.50	
  3.388	152.325	  0.59730	  0.22078	  0.32317	  0.30795	  0.22841	  0.04920	  0.60371	701.94000	 40.40	
  5.099	161.165	  0.59862	  0.18533	  0.35876	  0.31023	  0.22128	  0.04497	  0.60621	702.04999	 40.40	
  5.109	142.013	  0.59683	  0.19038	  0.34467	  0.33595	  0.19705	  0.04316	  0.60677	702.02002	 40.30	
  5.095	123.033	  0.59528	  0.21583	  0.31471	  0.36402	  0.17396	  0.04684	  0.60629	702.03998	 40.20	
  5.105	104.191	  0.58984	  0.23578	  0.28836	  0.37548	  0.15871	  0.04607	  0.59950	702.12000	 40.10	
  5.093	 85.207	  0.59415	  0.26899	  0.25919	  0.37557	  0.16207	  0.04655	  0.60593	702.15997	 40.00	
  5.104	 66.290	  0.59413	  0.29737	  0.23308	  0.37265	  0.16312	  0.04919	  0.60351	702.10999	 39.90	
  5.094	 47.331	  0.59400	  0.32796	  0.20758	  0.35021	  0.18213	  0.05071	  0.60324	702.04999	 39.90	
  5.089	 28.397	  0.59578	  0.34776	  0.19130	  0.33183	  0.19933	  0.04966	  0.60388	702.06000	 39.80	
  5.096	  9.576	  0.59483	  0.35354	  0.18832	  0.29824	  0.23025	  0.04989	  0.60219	702.13000	 39.70	
  5.096	 -9.576	  0.60116	  0.35955	  0.18804	  0.26953	  0.26585	  0.04915	  0.60827	701.97998	 39.60	
  5.089	-28.397	  0.59769	  0.34772	  0.19939	  0.24283	  0.29065	  0.05116	  0.60277	702.03003	 39.60	
  5.094	-47.331	  0.60269	  0.33557	  0.20982	  0.21726	  0.32095	  0.04996	  0.61058	701.98999	 39.50	
  5.104	-66.290	  0.59830	  0.30643	  0.23458	  0.20474	  0.33382	  0.04970	  0.60292	702.10999	 39.40	
  5.093	-85.207	  0.60189	  0.28079	  0.25989	  0.20172	  0.34282	  0.04875	  0.60524	701.92999	 39.40	
  5.105	-104.191	  0.60093	  0.24689	  0.29417	  0.20281	  0.33970	  0.04795	  0.60466	702.01001	 39.30	
  5.095	-123.033	  0.59596	  0.21993	  0.31942	  0.21242	  0.32383	  0.04823	  0.59939	702.07001	 39.20	
  5.109	-142.013	  0.59847	  0.19968	  0.34487	  0.22882	  0.30479	  0.04660	  0.60256	702.14001	 39.20	
  5.099	-161.165	  0.60017	  0.18632	  0.35951	  0.25077	  0.28036	  0.04496	  0.60608	702.09998	 39.10	
  5.100	180.000	  0.59665	  0.17937	  0.36180	  0.27829	  0.24914	  0.04350	  0.60390	702.09998	 39.00	
  6.800	180.000	  0.59059	  0.14397	  0.39320	  0.27333	  0.24130	  0.03643	  0.60319	702.07001	 39.00	
  6.796	-166.229	  0.59192	  0.15221	  0.38849	  0.24547	  0.27187	  0.03612	  0.60377	702.02002	 38.90	
  6.808	-152.311	  0.58987	  0.15906	  0.37663	  0.22066	  0.29909	  0.03809	  0.60048	701.96997	 38.90	
  6.795	-138.383	  0.59388	  0.17318	  0.36266	  0.20218	  0.32344	  0.03854	  0.60350	702.00000	 38.80	
  6.792	-124.591	  0.59649	  0.20008	  0.33413	  0.18349	  0.34906	  0.04074	  0.60355	701.92999	 38.70	
  6.787	-110.754	  0.59446	  0.21892	  0.31215	  0.17328	  0.36415	  0.04316	  0.60424	702.12000	 38.70	
  6.800	-96.985	  0.59544	  0.24957	  0.27938	  0.16288	  0.37342	  0.04277	  0.60460	702.08002	 38.60	
  6.800	-83.015	  0.59775	  0.27655	  0.25445	  0.16199	  0.37746	  0.04316	  0.60745	702.07001	 38.60	
  6.787	-69.246	  0.59867	  0.30968	  0.22592	  0.17462	  0.36584	  0.04700	  0.60754	702.10999	 38.50	
  6.792	-55.409	  0.59540	  0.33712	  0.19705	  0.18666	  0.34660	  0.04605	  0.60402	701.95001	 38.40	
  6.795	-41.617	  0.59555	  0.35963	  0.17797	  0.19977	  0.32757	  0.04479	  0.60645	702.00000	 38.40	
  6.808	-27.689	  0.59274	  0.36920	  0.17193	  0.22582	  0.29778	  0.04586	  0.60227	702.03003	 38.30	
  6.796	-13.771	  0.59201	  0.38542	  0.15482	  0.24980	  0.26862	  0.04507	  0.60368	702.04999	 38.30	
  6.800	  0.000	  0.58974	  0.38796	  0.15082	  0.28108	  0.23518	  0.04517	  0.60196	702.09998	 38.20	
  6.796	 13.771	  0.58837	  0.38327	  0.15261	  0.30789	  0.20649	  0.04515	  0.60269	701.90997	 38.10	
  6.808	 27.689	  0.58794	  0.36960	  0.16010	  0.33959	  0.17804	  0.04456	  0.60221	701.94000	 38.10	
  6.795	 41.617	  0.58618	  0.35180	  0.17388	  0.35772	  0.16105	  0.04535	  0.60295	701.89001	 38.00	
  6.792	 55.409	  0.58911	  0.32928	  0.19343	  0.38140	  0.14395	  0.04354	  0.60501	701.90997	 38.00	
  6.787	 69.246	  0.59078	  0.29892	  0.21998	  0.39835	  0.13362	  0.04374	  0.60688	701.89001	 37.90	
  6.800	 83.015	  0.58586	  0.26785	  0.24693	  0.39820	  0.13090	  0.04294	  0.60210	701.83002	 37.90	
  6.800	 96.985	  0.58532	  0.23877	  0.27530	  0.40211	  0.12518	  0.04183	  0.60081	701.92999	 37.80	
  6.787	110.754	  0.58754	  0.20897	  0.30478	  0.39470	  0.13426	  0.04024	  0.60459	701.83002	 37.80	
  6.792	124.591	  0.58648	  0.18920	  0.32928	  0.37259	  0.14985	  0.03810	  0.60121	701.90002	 37.70	
  6.795	138.383	  0.58469	  0.16851	  0.35214	  0.35846	  0.15960	  0.03666	  0.59910	701.84998	 37.70	
  6.808	152.311	  0.58860	  0.15658	  0.37460	  0.32996	  0.18421	  0.03630	  0.60269	701.77002	 37.60	
  6.796	166.229	  0.58702	  0.14694	  0.38508	  0.30145	  0.20955	  0.03702	  0.59920	701.83002	 37.60	
  8.491	168.704	  0.58298	  0.11059	  0.41609	  0.29383	  0.20589	  0.02636	  0.60403	701.96997	 37.50	
  8.502	157.493	  0.57831	  0.12022	  0.40115	  0.32242	  0.17575	  0.02595	  0.59971	701.90997	 37.50	
  8.494	146.194	  0.58022	  0.12978	  0.38928	  0.35356	  0.15083	  0.02966	  0.60114	701.90002	 37.40	
  8.495	135.039	  0.58158	  0.14409	  0.36668	  0.38067	  0.12926	  0.02659	  0.60445	701.88000	 37.40	
  8.487	123.723	  0.57511	  0.16119	  0.34064	  0.39803	  0.11130	  0.03087	  0.59851	701.84998	 37.40	
  8.492	112.575	  0.57659	  0.18539	  0.31713	  0.41494	  0.10060	  0.03225	  0.60035	701.83002	 37.30	
  8.510	101.220	  0.58332	  0.21421	  0.28969	  0.42798	  0.09593	  0.03392	  0.60656	701.81000	 37.30	
  8.500	 90.000	  0.57903	  0.24646	  0.25199	  0.43262	  0.08874	  0.03451	  0.60404	701.89001	 37.20	
  8.510	 78.780	  0.57479	  0.27517	  0.22295	  0.42369	  0.09607	  0.03659	  0.59806	701.90002	 37.20	
  8.492	 67.425	  0.57788	  0.30507	  0.19694	  0.42119	  0.09829	  0.03940	  0.60134	701.91998	 37.10	
  8.487	 56.277	  0.57301	  0.33362	  0.16876	  0.40098	  0.10892	  0.03858	  0.59752	701.95001	 37.10	
  8.495	 44.961	  0.57522	  0.35570	  0.15424	  0.38247	  0.12660	  0.03814	  0.59624	701.97998	 37.10	
  8.494	 33.806	  0.57974	  0.38001	  0.13985	  0.35991	  0.14887	  0.03956	  0.60043	701.92999	 37.00	
  8.502	 22.507	  0.57886	  0.40010	  0.12357	  0.32815	  0.17581	  0.04072	  0.59956	701.98999	 37.00	
  8.491	 11.296	  0.57801	  0.41036	  0.11530	  0.29874	  0.19814	  0.03816	  0.59828	702.03003	 36.90	
  8.500	  0.000	  0.58078	  0.41807	  0.11394	  0.27020	  0.22879	  0.03986	  0.59908	701.96002	 36.90	
  8.491	-11.296	  0.58222	  0.41586	  0.11661	  0.24298	  0.25847	  0.03905	  0.60009	701.92999	 36.80	
  8.502	-22.507	  0.58010	  0.40186	  0.12518	  0.21406	  0.29076	  0.03948	  0.59593	701.90002	 36.80	
  8.494	-33.806	  0.58056	  0.38871	  0.13778	  0.19044	  0.31770	  0.04201	  0.59711	701.91998	 36.80	
  8.495	-44.961	  0.58217	  0.36693	  0.15649	  0.17289	  0.34284	  0.04118	  0.59669	702.28003	 36.70	
  8.487	-56.277	  0.58683	  0.34019	  0.18236	  0.15624	  0.36724	  0.03959	  0.59916	701.91998	 36.70	
  8.492	-67.425	  0.58612	  0.31977	  0.19914	  0.14324	  0.38155	  0.04011	  0.60044	701.84998	 36.60	
  8.510	-78.780	  0.58464	  0.28655	  0.22825	  0.13560	  0.38983	  0.03708	  0.59898	702.62000	 36.60	
  8.500	-90.000	  0.58310	  0.25476	  0.25733	  0.13036	  0.39765	  0.03831	  0.59641	701.79999	 36.60	
  8.510	-101.220	  0.58294	  0.22924	  0.28360	  0.13110	  0.39511	  0.03663	  0.59760	701.88000	 36.50	
  8.492	-112.575	  0.58397	  0.19793	  0.31676	  0.13848	  0.38519	  0.03431	  0.59860	702.47998	 36.50	
  8.487	-123.723	  0.58545	  0.17567	  0.34454	  0.15228	  0.36925	  0.03460	  0.59846	702.63000	 36.40	
  8.495	-135.039	  0.58242	  0.15098	  0.37167	  0.16633	  0.34786	  0.03307	  0.59637	702.54999	 36.40	
  8.494	-146.194	  0.58271	  0.13636	  0.39068	  0.18758	  0.32176	  0.03112	  0.59755	702.65997	 36.40	
  8.502	-157.493	  0.58364	  0.12595	  0.40477	  0.21330	  0.29022	  0.03050	  0.59854	701.81000	 36.30	
  8.491	-168.704	  0.58197	  0.11583	  0.41306	  0.23761	  0.26217	  0.02794	  0.60063	702.65997	 36.30	
  8.500	180.000	  0.58105	  0.11319	  0.41761	  0.26622	  0.23031	  0.02763	  0.60090	702.60999	 36.30	
 10.200	180.000	  0.57055	  0.07838	  0.44173	  0.25280	  0.22476	  0.01538	  0.59839	702.62000	 36.20	
 10.191	-170.497	  0.57069	  0.08272	  0.43758	  0.22256	  0.25914	  0.01763	  0.59780	702.65002	 36.20	
 10.210	-161.034	  0.57272	  0.08694	  0.43095	  0.19418	  0.29132	  0.01640	  0.60150	702.54999	 36.20	
 10.194	-151.526	  0.57898	  0.09827	  0.42294	  0.17615	  0.31939	  0.02037	  0.60433	702.65997	 36.10	
 10.190	-142.105	  0.57634	  0.11874	  0.39616	  0.15378	  0.34534	  0.02238	  0.60050	702.65997	 36.10	
 10.215	-132.646	  0.57467	  0.12682	  0.38324	  0.13219	  0.36804	  0.01691	  0.60196	702.67999	 36.10	
 10.203	-123.092	  0.58376	  0.15599	  0.35468	  0.11589	  0.39918	  0.01991	  0.60883	702.62000	 36.00	
 10.192	-113.678	  0.57716	  0.18186	  0.32253	  0.11334	  0.40186	  0.02595	  0.59932	702.70001	 36.00	
 10.208	-104.249	  0.57681	  0.20663	  0.29478	  0.10222	  0.41722	  0.02786	  0.59882	702.71002	 36.00	
 10.210	-94.801	  0.57700	  0.23246	  0.26709	  0.09881	  0.42065	  0.02858	  0.59974	702.77002	 35.90	
 10.210	-85.199	  0.57485	  0.26551	  0.23318	  0.10044	  0.41955	  0.02929	  0.59698	702.64001	 35.90	
 10.208	-75.751	  0.57565	  0.29470	  0.20617	  0.10183	  0.41636	  0.02921	  0.59770	702.62000	 35.90	
 10.192	-66.322	  0.57438	  0.32756	  0.17592	  0.10660	  0.40403	  0.03137	  0.59929	702.71002	 35.80	
 10.203	-56.908	  0.57323	  0.35194	  0.15295	  0.12156	  0.38612	  0.03051	  0.59823	702.63000	 35.80	
 10.215	-47.354	  0.57752	  0.37593	  0.13708	  0.14122	  0.36702	  0.03250	  0.59995	702.70001	 35.80	
 10.190	-37.895	  0.57599	  0.40111	  0.11702	  0.16153	  0.33635	  0.03214	  0.59703	702.66998	 35.70	
 10.194	-28.474	  0.57153	  0.41745	  0.10197	  0.18006	  0.31186	  0.03398	  0.59710	702.60999	 35.70	
 10.210	-18.966	  0.57571	  0.43222	  0.08870	  0.20702	  0.28247	  0.02960	  0.60088	702.69000	 35.70	
 10.191	 -9.503	  0.57784	  0.43001	  0.09509	  0.23787	  0.25130	  0.03123	  0.60188	702.69000	 35.60	
 10.200	  0.000	  0.56946	  0.43721	  0.08512	  0.26437	  0.22003	  0.03584	  0.59722	702.65002	 35.60	
 10.191	  9.503	  0.56826	  0.43464	  0.08651	  0.28678	  0.19666	  0.03130	  0.59860	702.62000	 35.60	
 10.210	 18.966	  0.56982	  0.42379	  0.09180	  0.31708	  0.16829	  0.03235	  0.59782	702.65002	 35.60	
 10.194	 28.474	  0.57054	  0.40924	  0.10250	  0.35290	  0.13861	  0.03009	  0.60126	702.60999	 35.50	
 10.190	 37.895	  0.57194	  0.39391	  0.11481	  0.37785	  0.11779	  0.03261	  0.60272	702.65997	 35.50	
 10.215	 47.354	  0.56794	  0.36807	  0.13134	  0.40368	  0.09538	  0.03119	  0.59913	702.60999	 35.50	
 10.203	 56.908	  0.56221	  0.33679	  0.15125	  0.42330	  0.07847	  0.03251	  0.59312	702.65997	 35.40	
 10.192	 66.322	  0.55609	  0.30838	  0.17163	  0.43628	  0.06198	  0.03229	  0.59050	702.63000	 35.40	
 10.208	 75.751	  0.56175	  0.27830	  0.20163	  0.44765	  0.05754	  0.03172	  0.59438	702.65002	 35.40	
 10.210	 85.199	  0.56550	  0.24694	  0.23190	  0.45269	  0.05762	  0.02703	  0.59739	702.65997	 35.40	
 10.210	 94.801	  0.56329	  0.21911	  0.25820	  0.45365	  0.05363	  0.02619	  0.59838	702.60999	 35.30	
 10.208	104.249	  0.56898	  0.19495	  0.28738	  0.44795	  0.06167	  0.02471	  0.60280	702.65997	 35.30	
 10.192	113.678	  0.56524	  0.16603	  0.32155	  0.43021	  0.07416	  0.02450	  0.59715	702.62000	 35.30	
 10.203	123.092	  0.56752	  0.14072	  0.34945	  0.41508	  0.08607	  0.01996	  0.59965	702.64001	 35.30	
 10.215	132.646	  0.56510	  0.12136	  0.37437	  0.39587	  0.09755	  0.02199	  0.59883	702.66998	 35.20	
 10.190	142.105	  0.56378	  0.10444	  0.39579	  0.36855	  0.11700	  0.01805	  0.59362	702.64001	 35.20	
 10.194	151.526	  0.57219	  0.09509	  0.41666	  0.34369	  0.14575	  0.01832	  0.60216	702.65002	 35.20	
 10.210	161.034	  0.56945	  0.08395	  0.43107	  0.31221	  0.16999	  0.01792	  0.59881	702.60999	 35.10	
 10.191	170.497	  0.57199	  0.07315	  0.44414	  0.28507	  0.19382	  0.01695	  0.60261	702.63000	 35.10	
 11.899	171.783	  0.55928	  0.04685	  0.46205	  0.27582	  0.18534	  0.00797	  0.59919	702.71002	 35.10	
 11.890	163.610	  0.55551	  0.04822	  0.45491	  0.30658	  0.15470	  0.00859	  0.59819	702.62000	 35.10	
 11.889	155.445	  0.55581	  0.05908	  0.44019	  0.33587	  0.12843	  0.00679	  0.59722	702.62000	 35.00	
 11.909	147.299	  0.55235	  0.06702	  0.42297	  0.36470	  0.10259	  0.00814	  0.59610	702.63000	 35.00	
 11.902	139.148	  0.55474	  0.08127	  0.40517	  0.39002	  0.08450	  0.00753	  0.59903	702.62000	 35.00	
 11.894	130.867	  0.54984	  0.09444	  0.37972	  0.41488	  0.06138	  0.00918	  0.59640	702.64001	 35.00	
 11.897	122.732	  0.55379	  0.12044	  0.35294	  0.43695	  0.04842	  0.00870	  0.59863	702.48999	 34.90	
 11.903	114.597	  0.55360	  0.14465	  0.32276	  0.44914	  0.04319	  0.01263	  0.59806	702.66998	 34.90	
 11.893	106.346	  0.55050	  0.16735	  0.29399	  0.46214	  0.03328	  0.01387	  0.59585	702.65002	 34.90	
 11.892	 98.155	  0.55108	  0.19396	  0.26299	  0.47153	  0.02504	  0.01619	  0.59766	702.63000	 34.90	
 11.900	 90.000	  0.55069	  0.22335	  0.23367	  0.47455	  0.02307	  0.01668	  0.59713	702.54999	 34.80	
 11.892	 81.845	  0.55066	  0.25374	  0.20794	  0.47130	  0.02667	  0.02135	  0.59540	702.57001	 34.80	
 11.893	 73.654	  0.55257	  0.28347	  0.18173	  0.46571	  0.03024	  0.02098	  0.59876	702.50000	 34.80	
 11.903	 65.403	  0.55198	  0.31890	  0.15036	  0.45578	  0.03955	  0.02164	  0.59754	702.67999	 34.80	
 11.897	 57.268	  0.55842	  0.34826	  0.12983	  0.44151	  0.05322	  0.02275	  0.60095	702.57001	 34.80	
 11.894	 49.133	  0.55288	  0.37193	  0.10892	  0.41971	  0.06329	  0.02051	  0.59685	702.45001	 34.70	
 11.902	 40.852	  0.55556	  0.39906	  0.08916	  0.39645	  0.08289	  0.02065	  0.59859	702.58002	 34.70	
 11.909	 32.701	  0.55434	  0.41994	  0.07557	  0.37053	  0.10386	  0.02445	  0.59533	702.53998	 34.70	
 11.889	 24.555	  0.56106	  0.44100	  0.06453	  0.34767	  0.12762	  0.02624	  0.60245	702.65997	 34.70	
 11.890	 16.390	  0.55529	  0.44795	  0.05496	  0.31421	  0.14998	  0.02483	  0.59530	702.53998	 34.60	
 11.899	  8.217	  0.55466	  0.45702	  0.05043	  0.28370	  0.17899	  0.02536	  0.59316	702.54999	 34.60	
 11.900	  0.000	  0.55669	  0.46104	  0.04919	  0.24934	  0.21098	  0.02537	  0.59371	702.56000	 34.60	
 11.899	 -8.217	  0.55875	  0.45756	  0.05581	  0.22686	  0.23906	  0.02674	  0.59365	702.46002	 34.60	
 11.890	-16.390	  0.56082	  0.45107	  0.06043	  0.19721	  0.27310	  0.02456	  0.59494	702.52002	 34.60	
 11.889	-24.555	  0.56275	  0.44212	  0.07132	  0.16995	  0.30708	  0.02709	  0.59616	702.53003	 34.50	
 11.909	-32.701	  0.56130	  0.43112	  0.07826	  0.14872	  0.32998	  0.02744	  0.59640	702.51001	 34.50	
 11.902	-40.852	  0.56081	  0.40903	  0.09499	  0.12537	  0.35766	  0.02503	  0.59295	702.46997	 34.50	
 11.894	-49.133	  0.56238	  0.38482	  0.11359	  0.10973	  0.38156	  0.02545	  0.59393	702.57001	 34.50	
 11.897	-57.268	  0.56439	  0.35885	  0.13386	  0.09518	  0.40293	  0.02381	  0.59539	702.63000	 34.40	
 11.903	-65.403	  0.56135	  0.33261	  0.15293	  0.08204	  0.41885	  0.01888	  0.59249	702.54999	 34.40	
 11.893	-73.654	  0.56583	  0.30312	  0.18198	  0.07434	  0.43422	  0.02065	  0.59746	702.54999	 34.40	
 11.892	-81.845	  0.56583	  0.27357	  0.21272	  0.07029	  0.43893	  0.02049	  0.59652	702.58002	 34.40	
 11.900	-90.000	  0.56533	  0.23740	  0.24340	  0.06310	  0.44750	  0.01848	  0.59575	702.56000	 34.40	
 11.892	-98.155	  0.56309	  0.21047	  0.27071	  0.06542	  0.44254	  0.01873	  0.59522	702.59003	 34.30	
 11.893	-106.346	  0.56015	  0.18087	  0.29747	  0.07122	  0.43135	  0.01603	  0.59155	702.53003	 34.30	
 11.903	-114.597	  0.56274	  0.15249	  0.33340	  0.07719	  0.42052	  0.01597	  0.59301	702.52002	 34.30	
 11.897	-122.732	  0.56046	  0.13301	  0.35530	  0.08365	  0.40875	  0.01356	  0.59459	702.46997	 34.30	
 11.894	-130.867	  0.56910	  0.11092	  0.38765	  0.10248	  0.39011	  0.01146	  0.60142	702.48999	 34.30	
 11.902	-139.148	  0.56489	  0.09038	  0.41139	  0.11848	  0.36380	  0.00579	  0.60173	702.48999	 34.30	
 11.909	-147.299	  0.56007	  0.07456	  0.42776	  0.13641	  0.33426	  0.00548	  0.59570	702.46997	 34.20	
 11.889	-155.445	  0.56394	  0.06294	  0.44510	  0.15888	  0.31215	  0.00828	  0.60108	702.46002	 34.20	
 11.890	-163.610	  0.55460	  0.04990	  0.45439	  0.18558	  0.27270	  0.00379	  0.59282	702.42999	 34.20	
 11.899	-171.783	  0.55796	  0.04808	  0.46043	  0.21564	  0.24318	  0.00415	  0.59616	702.45001	 34.20	
 11.900	180.000	  0.55908	  0.04760	  0.46480	  0.24221	  0.21556	  0.00728	  0.59619	702.46997	 34.20	
 13.600	180.000	  0.54375	  0.00935	  0.48815	  0.23203	  0.20562	 -0.00195	  0.59806	702.39001	 34.10	
 13.608	-172.853	  0.54276	  0.01169	  0.48595	  0.19998	  0.23528	 -0.00270	  0.59615	702.42999	 34.10	
 13.611	-165.583	  0.54511	  0.01581	  0.47889	  0.17427	  0.26546	 -0.00305	  0.59738	702.45001	 34.10	
 13.601	-158.353	  0.54351	  0.02859	  0.46463	  0.14960	  0.29442	  0.00116	  0.59287	702.42999	 34.10	
 13.609	-151.210	  0.54492	  0.03760	  0.45355	  0.12677	  0.32216	  0.00293	  0.59421	702.46997	 34.10	
 13.611	-143.999	  0.55277	  0.04824	  0.44128	  0.10431	  0.35744	  0.00116	  0.60416	702.50000	 34.00	
 13.601	-136.825	  0.54991	  0.06639	  0.41508	  0.08632	  0.38023	 -0.00065	  0.59819	702.48999	 34.00	
 13.596	-129.640	  0.54392	  0.08833	  0.38481	  0.07049	  0.39836	  0.00235	  0.58786	702.50000	 34.00	
 13.611	-122.431	  0.55540	  0.11120	  0.36520	  0.05779	  0.42648	  0.00291	  0.59898	702.44000	 34.00	
 13.604	-115.211	  0.55286	  0.13277	  0.33739	  0.04590	  0.44254	  0.00587	  0.59765	702.53003	 34.00	
 13.595	-108.042	  0.55316	  0.15940	  0.30746	  0.03878	  0.45441	  0.00714	  0.59792	702.46002	 34.00	
 13.607	-100.793	  0.55375	  0.18344	  0.27867	  0.03366	  0.46472	  0.00572	  0.59891	702.53003	 33.90	
 13.601	-93.617	  0.54984	  0.21961	  0.24355	  0.03091	  0.46485	  0.00831	  0.59412	702.50000	 33.90	
 13.601	-86.383	  0.55166	  0.24515	  0.21542	  0.02951	  0.46926	  0.00783	  0.59785	702.46002	 33.90	
 13.607	-79.207	  0.55054	  0.27627	  0.18670	  0.03885	  0.45849	  0.01037	  0.59513	702.38000	 33.90	
 13.595	-71.958	  0.55157	  0.30692	  0.15906	  0.03963	  0.45640	  0.01176	  0.59694	702.44000	 33.90	
 13.604	-64.789	  0.54996	  0.33966	  0.13510	  0.05424	  0.43307	  0.01273	  0.59305	702.32001	 33.90	
 13.611	-57.569	  0.54637	  0.36366	  0.10787	  0.06201	  0.41932	  0.01455	  0.59152	702.45001	 33.80	
 13.596	-50.360	  0.54868	  0.39345	  0.08880	  0.07376	  0.40221	  0.01599	  0.59535	702.57001	 33.80	
 13.601	-43.175	  0.55099	  0.41971	  0.06994	  0.09813	  0.37153	  0.01482	  0.59506	702.41998	 33.80	
 13.611	-36.001	  0.54968	  0.43752	  0.05466	  0.10973	  0.35410	  0.01787	  0.59856	702.40997	 33.80	
 13.609	-28.790	  0.54778	  0.45300	  0.04294	  0.13956	  0.31637	  0.01782	  0.59260	702.51001	 33.80	
 13.601	-21.647	  0.54596	  0.46561	  0.03394	  0.16009	  0.29032	  0.01866	  0.59441	702.40002	 33.80	
 13.611	-14.417	  0.54704	  0.47751	  0.02647	  0.18772	  0.25856	  0.01585	  0.59656	702.52002	 33.80	
 13.608	 -7.147	  0.54822	  0.48383	  0.02094	  0.21494	  0.23030	  0.01864	  0.59710	702.59998	 33.70	
 13.600	  0.000	  0.54279	  0.48267	  0.01890	  0.24150	  0.19578	  0.01580	  0.59507	702.52002	 33.70	
 13.608	  7.147	  0.53869	  0.47911	  0.01742	  0.27264	  0.16511	  0.01695	  0.59200	702.58002	 33.70	
 13.611	 14.417	  0.54045	  0.47500	  0.01997	  0.30316	  0.13660	  0.01640	  0.59639	702.41998	 33.70	
 13.601	 21.647	  0.54215	  0.46002	  0.03059	  0.33613	  0.11149	  0.01552	  0.59655	702.58002	 33.70	
 13.609	 28.790	  0.53489	  0.44660	  0.03512	  0.35621	  0.08759	  0.01573	  0.59119	702.54999	 33.70	
 13.611	 36.001	  0.54184	  0.42598	  0.05087	  0.39011	  0.06960	  0.01423	  0.59762	702.52002	 33.60	
 13.601	 43.175	  0.53632	  0.40079	  0.06601	  0.41402	  0.04790	  0.01425	  0.59310	702.54999	 33.60	
 13.596	 50.360	  0.53760	  0.37777	  0.08060	  0.43460	  0.03200	  0.01161	  0.59473	702.53998	 33.60	
 13.611	 57.569	  0.53391	  0.34863	  0.10407	  0.45053	  0.01897	  0.01063	  0.59137	702.46002	 33.60	
 13.604	 64.789	  0.53770	  0.32319	  0.12622	  0.47189	  0.00703	  0.01236	  0.59723	702.53998	 33.60	
 13.595	 71.958	  0.53734	  0.29083	  0.15458	  0.48329	 -0.00042	  0.01069	  0.59598	702.41998	 33.60	
 13.607	 79.207	  0.53760	  0.25975	  0.18029	  0.49042	 -0.00381	  0.01019	  0.59704	702.47998	 33.50	
 13.601	 86.383	  0.53502	  0.22936	  0.20664	  0.49776	 -0.01533	  0.00938	  0.59575	702.41998	 33.50	
 13.601	 93.617	  0.53077	  0.19721	  0.23441	  0.49039	 -0.01059	  0.00638	  0.59139	702.40002	 33.50	
 13.607	100.793	  0.53879	  0.17238	  0.26657	  0.49174	 -0.00421	  0.00694	  0.59843	702.37000	 33.50	
 13.595	108.042	  0.53761	  0.14384	  0.29885	  0.48028	 -0.00007	  0.00490	  0.59604	702.38000	 33.50	
 13.604	115.211	  0.53850	  0.11828	  0.32895	  0.46598	  0.01080	  0.00488	  0.59737	702.42999	 33.50	
 13.611	122.431	  0.53486	  0.09155	  0.35815	  0.45259	  0.01479	  0.00135	  0.59479	702.44000	 33.50	
 13.596	129.640	  0.53793	  0.07527	  0.38646	  0.43028	  0.03301	  0.00104	  0.59612	702.46997	 33.50	
 13.601	136.825	  0.54117	  0.05689	  0.41329	  0.41099	  0.04854	  0.00051	  0.60002	702.45001	 33.40	
 13.611	143.999	  0.54351	  0.04437	  0.43454	  0.38148	  0.07302	 -0.00009	  0.59914	702.42999	 33.40	
 13.609	151.210	  0.53740	  0.02649	  0.45293	  0.35206	  0.09122	 -0.00387	  0.59439	702.34003	 33.40	
 13.601	158.353	  0.53836	  0.02564	  0.46092	  0.32177	  0.11780	 -0.00221	  0.59211	702.34003	 33.40	
 13.611	165.583	  0.53684	  0.01572	  0.47323	  0.29208	  0.14372	 -0.00175	  0.59157	702.35999	 33.40	
 13.608	172.853	  0.54023	  0.01214	  0.48300	  0.26190	  0.17105	 -0.00277	  0.59500	702.34998	 33.40	
 15.298	173.587	  0.52056	 -0.02169	  0.50229	  0.24938	  0.15738	 -0.01510	  0.58976	702.41998	 33.40	
 15.291	167.167	  0.52266	 -0.01738	  0.49610	  0.28131	  0.13206	 -0.01235	  0.59368	702.40997	 33.40	
 15.307	160.676	  0.52235	 -0.01310	  0.48835	  0.31021	  0.10428	 -0.01201	  0.59371	702.35999	 33.30	
 15.300	154.261	  0.52181	 -0.00481	  0.47343	  0.34096	  0.07919	 -0.01078	  0.59562	702.37000	 33.30	
 15.288	147.854	  0.51598	  0.00729	  0.44948	  0.36628	  0.05599	 -0.01241	  0.58657	702.44000	 33.30	
 15.293	141.428	  0.52071	  0.02026	  0.43594	  0.39393	  0.03951	 -0.00828	  0.59254	702.40997	 33.30	
 15.299	134.985	  0.51748	  0.03457	  0.41128	  0.41871	  0.01772	 -0.00943	  0.59106	702.40002	 33.30	
 15.305	128.583	  0.51957	  0.05388	  0.38335	  0.44384	  0.00306	 -0.01081	  0.59483	702.33002	 33.30	
 15.309	122.142	  0.51985	  0.06800	  0.36166	  0.46310	 -0.00949	 -0.01212	  0.59417	702.33002	 33.30	
 15.304	115.711	  0.51969	  0.09492	  0.33046	  0.47927	 -0.01889	 -0.00697	  0.59480	702.28003	 33.30	
 15.297	109.291	  0.51929	  0.11844	  0.30133	  0.49262	 -0.02759	 -0.00372	  0.59472	702.38000	 33.20	
 15.293	102.897	  0.51686	  0.14596	  0.26953	  0.50084	 -0.03390	 -0.00126	  0.58967	702.38000	 33.20	
 15.293	 96.458	  0.51830	  0.16929	  0.24148	  0.51010	 -0.04101	 -0.00332	  0.59338	702.39001	 33.20	
 15.300	 90.000	  0.51707	  0.20108	  0.20833	  0.51170	 -0.04073	 -0.00241	  0.59236	702.34003	 33.20	
 15.293	 83.542	  0.51736	  0.22988	  0.18501	  0.50825	 -0.03775	  0.00053	  0.59015	702.28003	 33.20	
 15.293	 77.103	  0.51972	  0.26223	  0.15450	  0.50822	 -0.03607	  0.00168	  0.59651	702.29999	 33.20	
 15.297	 70.709	  0.51970	  0.28886	  0.13228	  0.49848	 -0.02790	  0.00466	  0.59322	702.39001	 33.20	
 15.304	 64.289	  0.52338	  0.32373	  0.10458	  0.48918	 -0.02326	  0.00253	  0.59813	702.45001	 33.20	
 15.309	 57.858	  0.52017	  0.35272	  0.08209	  0.46917	 -0.01046	  0.00342	  0.59444	702.38000	 33.10	
 15.305	 51.417	  0.52449	  0.38228	  0.06158	  0.45276	  0.00291	  0.00425	  0.59818	702.21997	 33.10	
 15.299	 45.015	  0.52074	  0.40772	  0.04171	  0.42299	  0.02052	  0.00480	  0.59208	702.25000	 33.10	
 15.293	 38.572	  0.52273	  0.42606	  0.03173	  0.40507	  0.03629	  0.00396	  0.59407	702.29999	 33.10	
 15.288	 32.146	  0.52308	  0.44900	  0.01644	  0.37767	  0.05693	  0.00581	  0.59271	702.38000	 33.10	
 15.300	 25.739	  0.52477	  0.46713	  0.00698	  0.35125	  0.07816	  0.00719	  0.59450	702.34998	 33.10	
 15.307	 19.324	  0.52126	  0.48194	 -0.00436	  0.31995	  0.10111	  0.00877	  0.59106	702.40997	 33.10	
 15.291	 12.833	  0.52346	  0.49009	 -0.00650	  0.28955	  0.12815	  0.00717	  0.59037	702.34998	 33.10	
 15.298	  6.413	  0.52544	  0.49936	 -0.01304	  0.26063	  0.15450	  0.00825	  0.59152	702.41998	 33.10	
 15.300	  0.000	  0.52506	  0.50014	 -0.01156	  0.23416	  0.18267	  0.01024	  0.59101	702.32001	 33.10	
 15.298	 -6.413	  0.52686	  0.50363	 -0.01254	  0.20112	  0.21738	  0.01124	  0.59288	702.33002	 33.00	
 15.291	-12.833	  0.52916	  0.49591	 -0.00422	  0.17567	  0.24823	  0.00994	  0.59098	702.25000	 33.00	
 15.307	-19.324	  0.52957	  0.48982	  0.00126	  0.14995	  0.27339	  0.00852	  0.59437	702.31000	 33.00	
 15.300	-25.739	  0.52931	  0.47559	  0.00680	  0.12427	  0.30676	  0.00799	  0.59082	702.37000	 33.00	
 15.288	-32.146	  0.53359	  0.46076	  0.02126	  0.10255	  0.33825	  0.00769	  0.59246	702.40002	 33.00	
 15.293	-38.572	  0.53815	  0.44501	  0.03634	  0.08429	  0.36575	  0.00862	  0.59415	702.34003	 33.00	
 15.299	-45.015	  0.53733	  0.42259	  0.05029	  0.06298	  0.39432	  0.00712	  0.59627	702.35999	 33.00	
 15.305	-51.417	  0.53417	  0.39600	  0.06837	  0.04682	  0.41433	  0.00476	  0.59429	702.37000	 33.00	
 15.309	-57.858	  0.53027	  0.36996	  0.08476	  0.03044	  0.43133	  0.00102	  0.58969	702.35999	 33.00	
 15.304	-64.289	  0.53752	  0.34256	  0.11047	  0.02367	  0.45206	  0.00169	  0.59446	702.37000	 32.90	
 15.297	-70.709	  0.53663	  0.31008	  0.13634	  0.01104	  0.46680	  0.00090	  0.59285	702.39001	 32.90	
 15.293	-77.103	  0.53396	  0.28112	  0.16202	  0.00913	  0.47095	  0.00144	  0.58907	702.33002	 32.90	
 15.293	-83.542	  0.53559	  0.25354	  0.18688	  0.00150	  0.48407	  0.00136	  0.59454	702.37000	 32.90	
 15.300	-90.000	  0.53703	  0.21930	  0.22044	  0.00260	  0.48412	 -0.00111	  0.59392	702.32001	 32.90	
 15.293	-96.458	  0.53296	  0.19263	  0.23967	 -0.00491	  0.48765	 -0.00280	  0.59525	702.34998	 32.90	
 15.293	-102.897	  0.53056	  0.16039	  0.27710	  0.00579	  0.47442	  0.00000	  0.58734	702.27002	 32.90	
 15.297	-109.291	  0.53347	  0.13327	  0.30810	  0.00716	  0.46991	 -0.00220	  0.59317	702.22998	 32.90	
 15.304	-115.711	  0.53710	  0.11208	  0.33892	  0.01479	  0.45781	 -0.00241	  0.59574	702.22998	 32.90	
 15.309	-122.142	  0.53291	  0.08569	  0.36470	  0.02310	  0.44264	 -0.00425	  0.59319	702.28003	 32.90	
 15.305	-128.583	  0.53424	  0.06281	  0.39706	  0.03987	  0.41850	 -0.00407	  0.59414	702.32001	 32.90	
 15.299	-134.985	  0.53141	  0.04206	  0.42153	  0.05480	  0.39237	 -0.00528	  0.59266	702.28003	 32.80	
 15.293	-141.428	  0.52661	  0.03170	  0.43539	  0.07122	  0.36491	 -0.00570	  0.58627	702.21997	 32.80	
 15.288	-147.854	  0.53253	  0.01682	  0.46022	  0.09169	  0.34273	 -0.00780	  0.59562	702.28003	 32.80	
 15.300	-154.261	  0.52657	  0.00067	  0.47583	  0.11137	  0.31221	 -0.00706	  0.59125	702.29999	 32.80	
 15.307	-160.676	  0.52696	 -0.00348	  0.48384	  0.13905	  0.28076	 -0.00931	  0.59037	702.29999	 32.80	
 15.291	-167.167	  0.52542	 -0.00856	  0.49261	  0.16509	  0.24889	 -0.00839	  0.58830	702.28003	 32.80	
 15.298	-173.587	  0.52717	 -0.01503	  0.50088	  0.18817	  0.22223	 -0.01273	  0.59257	702.32001	 32.80	
 15.300	180.000	  0.52682	 -0.02239	  0.50879	  0.22028	  0.18841	 -0.01585	  0.59567	702.51001	 32.80	
 17.000	180.000	  0.50879	 -0.04720	  0.51987	  0.20298	  0.17980	 -0.02574	  0.59284	702.32001	 32.80	
 16.990	-174.179	  0.50270	 -0.04836	  0.51412	  0.17399	  0.20742	 -0.02713	  0.58754	702.40997	 32.80	
 17.009	-168.383	  0.51247	 -0.04375	  0.51839	  0.15339	  0.23693	 -0.02289	  0.59586	702.37000	 32.80	
 17.000	-162.596	  0.51193	 -0.03765	  0.50873	  0.12332	  0.26918	 -0.01662	  0.59497	702.27002	 32.70	
 16.990	-156.759	  0.51349	 -0.02708	  0.49539	  0.10193	  0.29986	 -0.01879	  0.59197	702.23999	 32.70	
 16.995	-150.919	  0.51126	 -0.01864	  0.48063	  0.08073	  0.32703	 -0.01636	  0.59035	702.33002	 32.70	
 16.988	-145.161	  0.51008	 -0.00985	  0.46222	  0.05644	  0.35727	 -0.01443	  0.59115	702.35999	 32.70	
 17.014	-139.343	  0.51405	  0.00853	  0.44278	  0.03981	  0.38286	 -0.01564	  0.59323	702.28003	 32.70	
 17.007	-133.546	  0.51393	  0.02370	  0.41849	  0.02332	  0.40942	 -0.01327	  0.59156	702.25000	 32.70	
 17.001	-127.699	  0.51786	  0.04705	  0.39396	  0.01284	  0.43323	 -0.01432	  0.59344	702.31000	 32.70	
 17.006	-121.937	  0.51935	  0.06483	  0.36839	 -0.00550	  0.45871	 -0.01393	  0.59933	702.39001	 32.70	
 17.002	-116.134	  0.51887	  0.09049	  0.33865	 -0.01317	  0.47466	 -0.00959	  0.59542	702.40997	 32.70	
 17.001	-110.310	  0.51488	  0.11289	  0.30778	 -0.01941	  0.48224	 -0.01031	  0.58986	702.34003	 32.70	
 16.988	-104.517	  0.51513	  0.13975	  0.27593	 -0.02381	  0.49156	 -0.01078	  0.58976	702.31000	 32.70	
 17.008	-98.662	  0.51858	  0.16696	  0.25076	 -0.02960	  0.50365	 -0.00775	  0.59433	702.19000	 32.60	
 16.996	-92.909	  0.51806	  0.19381	  0.22043	 -0.03013	  0.50399	 -0.00927	  0.59351	702.20001	 32.60	
 16.996	-87.091	  0.52242	  0.22559	  0.19283	 -0.02802	  0.50541	 -0.00903	  0.59703	702.25000	 32.60	
 17.012	-81.253	  0.51989	  0.25601	  0.16521	 -0.02858	  0.50284	 -0.01085	  0.59500	702.19000	 32.60	
 16.988	-75.483	  0.52134	  0.28499	  0.13862	 -0.02055	  0.49136	 -0.00908	  0.59313	702.23999	 32.60	
 17.001	-69.690	  0.51622	  0.31033	  0.11296	 -0.01559	  0.48160	 -0.00642	  0.58985	702.34003	 32.60	
 17.002	-63.866	  0.51834	  0.34784	  0.08671	 -0.00444	  0.46213	 -0.00750	  0.59248	702.38000	 32.60	
 17.006	-58.063	  0.51321	  0.37075	  0.06538	  0.00603	  0.44425	 -0.00304	  0.58715	702.39001	 32.60	
 17.001	-52.301	  0.52185	  0.40081	  0.04925	  0.02191	  0.42879	 -0.00357	  0.59643	702.25000	 32.60	
 17.007	-46.454	  0.51344	  0.42271	  0.02597	  0.03311	  0.40072	 -0.00497	  0.58823	702.29999	 32.60	
 17.014	-40.657	  0.51737	  0.44866	  0.01171	  0.04955	  0.38071	 -0.00235	  0.59616	702.16998	 32.60	
 16.988	-34.839	  0.52046	  0.46822	 -0.00218	  0.06888	  0.35567	 -0.00237	  0.59783	702.15997	 32.60	
 16.995	-29.081	  0.51447	  0.48268	 -0.01125	  0.09260	  0.32325	 -0.00064	  0.59031	702.25000	 32.50	
 16.990	-23.241	  0.51446	  0.49527	 -0.02055	  0.11680	  0.29139	 -0.00109	  0.59157	702.26001	 32.50	
 17.000	-17.404	  0.51490	  0.51242	 -0.03172	  0.13851	  0.26601	  0.00072	  0.59659	702.28003	 32.50	
 17.009	-11.617	  0.51525	  0.51705	 -0.03432	  0.16378	  0.23637	 -0.00007	  0.59490	702.27002	 32.50	
 16.990	 -5.821	  0.51021	  0.51574	 -0.03807	  0.19491	  0.20141	  0.00182	  0.58925	702.22998	 32.50	
 17.000	  0.000	  0.50686	  0.52149	 -0.04423	  0.21901	  0.17137	  0.00087	  0.59344	702.34003	 32.50	
 16.990	  5.821	  0.50989	  0.51648	 -0.03995	  0.25125	  0.14654	 -0.00250	  0.59465	702.23999	 32.50	
 17.009	 11.617	  0.51091	  0.51253	 -0.03763	  0.28429	  0.11546	 -0.00043	  0.59558	702.28998	 32.50	
 17.000	 17.404	  0.50471	  0.49826	 -0.03309	  0.30832	  0.08939	 -0.00249	  0.58964	702.20001	 32.50	
 16.990	 23.241	  0.51138	  0.48971	 -0.02245	  0.34056	  0.06937	 -0.00287	  0.59637	702.14001	 32.50	
 16.995	 29.081	  0.50739	  0.47003	 -0.01305	  0.36511	  0.04696	 -0.00286	  0.59271	702.21002	 32.50	
 16.988	 34.839	  0.50523	  0.45249	 -0.00623	  0.39468	  0.02204	 -0.00314	  0.59466	702.21997	 32.50	
 17.014	 40.657	  0.50133	  0.42631	  0.00816	  0.41798	  0.00539	 -0.00477	  0.58988	702.15997	 32.50	
 17.007	 46.454	  0.50205	  0.40497	  0.02261	  0.44151	 -0.01316	 -0.00558	  0.59142	702.14001	 32.40	
 17.001	 52.301	  0.49996	  0.38011	  0.04122	  0.45824	 -0.02311	 -0.00364	  0.59112	702.21997	 32.50	
 17.006	 58.063	  0.50380	  0.35226	  0.06235	  0.48570	 -0.04023	 -0.00706	  0.59521	702.21002	 32.40	
 17.002	 63.866	  0.49614	  0.32162	  0.08020	  0.49392	 -0.05044	 -0.00628	  0.58884	702.21997	 32.40	
 17.001	 69.690	  0.50212	  0.29387	  0.10567	  0.51422	 -0.05810	 -0.00641	  0.59651	702.22998	 32.40	
 16.988	 75.483	  0.49815	  0.26079	  0.13067	  0.52033	 -0.06490	 -0.00650	  0.59134	702.21002	 32.40	
 17.012	 81.253	  0.50112	  0.23263	  0.15619	  0.52910	 -0.07125	 -0.00777	  0.59440	702.33002	 32.40	
 16.996	 87.091	  0.50038	  0.20646	  0.18367	  0.52546	 -0.06505	 -0.00737	  0.59245	702.21997	 32.40	
 16.996	 92.909	  0.49923	  0.17476	  0.21246	  0.52547	 -0.06563	 -0.00649	  0.59059	702.10999	 32.40	
 17.008	 98.662	  0.49812	  0.14542	  0.24021	  0.52602	 -0.06980	 -0.00972	  0.59138	702.17999	 32.40	
 16.988	104.517	  0.50004	  0.11929	  0.27465	  0.51939	 -0.06398	 -0.00979	  0.59427	702.15002	 32.40	
 17.001	110.310	  0.49962	  0.09440	  0.29976	  0.50779	 -0.06126	 -0.01699	  0.59396	702.10999	 32.40	
 17.002	116.134	  0.49980	  0.07084	  0.32955	  0.49400	 -0.05114	 -0.01667	  0.59325	702.15997	 32.40	
 17.006	121.937	  0.50269	  0.04911	  0.36198	  0.47792	 -0.03696	 -0.01526	  0.59374	702.16998	 32.40	
 17.001	127.699	  0.50409	  0.03087	  0.38664	  0.45870	 -0.02597	 -0.01783	  0.59491	702.20001	 32.40	
 17.007	133.546	  0.49852	  0.01227	  0.40903	  0.43336	 -0.01270	 -0.01859	  0.58994	702.21002	 32.40	
 17.014	139.343	  0.50592	 -0.00664	  0.44116	  0.41199	  0.00461	 -0.02245	  0.59918	702.13000	 32.40	
 16.988	145.161	  0.50422	 -0.01677	  0.46193	  0.38093	  0.02703	 -0.02019	  0.59405	702.14001	 32.30	
 16.995	150.919	  0.50752	 -0.02268	  0.47694	  0.35460	  0.04854	 -0.01956	  0.59439	702.08002	 32.30	
 16.990	156.759	  0.50695	 -0.03637	  0.49569	  0.32648	  0.06827	 -0.02258	  0.59650	702.19000	 32.30	
 17.000	162.596	  0.50396	 -0.04101	  0.50298	  0.29459	  0.09225	 -0.02166	  0.59074	702.13000	 32.30	
 17.009	168.383	  0.50796	 -0.04936	  0.51786	  0.26698	  0.11738	 -0.02706	  0.59720	702.15997	 32.30	
 16.990	174.179	  0.50508	 -0.05006	  0.51701	  0.23142	  0.14930	 -0.02358	  0.59139	702.16998	 32.30	
 18.709	174.675	  0.48496	 -0.08057	  0.53582	  0.21871	  0.13480	 -0.02898	  0.59139	702.08002	 32.30	
 18.703	169.441	  0.48189	 -0.07385	  0.52583	  0.24975	  0.10458	 -0.03180	  0.58688	702.14001	 32.30	
 18.691	164.085	  0.48339	 -0.07162	  0.52034	  0.27627	  0.08288	 -0.03106	  0.58924	702.16998	 32.30	
 18.706	158.818	  0.48250	 -0.06445	  0.50747	  0.30633	  0.05863	 -0.03516	  0.58939	702.17999	 32.30	
 18.695	153.537	  0.48168	 -0.06008	  0.49627	  0.33502	  0.03418	 -0.02914	  0.58902	702.16998	 32.30	
 18.704	148.255	  0.48402	 -0.05022	  0.47812	  0.36825	  0.01187	 -0.02858	  0.59220	702.09003	 32.30	
 18.698	142.952	  0.48139	 -0.03722	  0.45935	  0.39656	 -0.00891	 -0.02706	  0.59103	702.22998	 32.30	
 18.699	137.625	  0.48461	 -0.02644	  0.43924	  0.42368	 -0.02776	 -0.02785	  0.59420	702.21997	 32.30	
 18.705	132.343	  0.48123	 -0.01050	  0.41306	  0.44509	 -0.04223	 -0.02691	  0.59346	702.21997	 32.20	
 18.713	127.067	  0.48384	  0.00403	  0.39132	  0.46901	 -0.05624	 -0.02399	  0.59679	702.17999	 32.20	
 18.700	121.794	  0.47913	  0.02676	  0.35934	  0.48441	 -0.06683	 -0.02367	  0.59103	702.21002	 32.20	
 18.698	116.504	  0.47510	  0.04416	  0.33020	  0.50270	 -0.08262	 -0.02081	  0.59002	702.22998	 32.20	
 18.707	111.165	  0.48122	  0.07094	  0.30028	  0.52095	 -0.08635	 -0.01954	  0.59514	702.21997	 32.20	
 18.690	105.863	  0.47834	  0.09012	  0.27420	  0.52890	 -0.09261	 -0.01721	  0.59059	702.22998	 32.20	
 18.696	100.583	  0.47408	  0.11954	  0.23681	  0.53510	 -0.09901	 -0.01737	  0.58864	702.17999	 32.20	
 18.700	 95.309	  0.48419	  0.14376	  0.21908	  0.54511	 -0.09761	 -0.01749	  0.59876	702.31000	 32.20	
 18.700	 90.000	  0.47848	  0.17616	  0.18359	  0.54017	 -0.09766	 -0.01636	  0.59241	702.20001	 32.20	
 18.700	 84.691	  0.47679	  0.20043	  0.15489	  0.54304	 -0.10172	 -0.01358	  0.59050	702.21002	 32.20	
 18.696	 79.417	  0.47842	  0.23099	  0.12893	  0.54099	 -0.09941	 -0.01490	  0.59185	702.20001	 32.20	
 18.690	 74.137	  0.48121	  0.26429	  0.10152	  0.53478	 -0.09479	 -0.01684	  0.59569	702.19000	 32.20	
 18.707	 68.835	  0.47943	  0.29123	  0.07942	  0.51905	 -0.08613	 -0.01562	  0.59081	702.10999	 32.20	
 18.698	 63.496	  0.47815	  0.31862	  0.05682	  0.50790	 -0.08059	 -0.01607	  0.58951	702.28998	 32.20	
 18.700	 58.206	  0.47656	  0.34941	  0.03219	  0.49014	 -0.07045	 -0.01339	  0.58738	702.17999	 32.20	
 18.713	 52.933	  0.48535	  0.38296	  0.01322	  0.47735	 -0.05056	 -0.01765	  0.59661	702.14001	 32.20	
 18.705	 47.657	  0.47813	  0.40276	 -0.00433	  0.45318	 -0.04108	 -0.01555	  0.59008	702.21002	 32.10	
 18.699	 42.375	  0.48457	  0.42972	 -0.01695	  0.43322	 -0.02173	 -0.01535	  0.59315	702.16998	 32.10	
 18.698	 37.048	  0.48179	  0.45110	 -0.03038	  0.40629	 -0.00528	 -0.01419	  0.58998	702.16998	 32.10	
 18.704	 31.745	  0.48026	  0.46911	 -0.04314	  0.37860	  0.01314	 -0.01395	  0.58664	702.21002	 32.10	
 18.695	 26.463	  0.48646	  0.48942	 -0.05051	  0.35214	  0.03644	 -0.01271	  0.59149	702.16998	 32.10	
 18.706	 21.182	  0.48598	  0.50574	 -0.06302	  0.32343	  0.05692	 -0.01088	  0.59253	702.14001	 32.10	
 18.691	 15.915	  0.48409	  0.51565	 -0.06865	  0.29161	  0.08108	 -0.01332	  0.59013	702.21002	 32.10	
 18.703	 10.559	  0.49297	  0.52836	 -0.06871	  0.26821	  0.11159	 -0.01194	  0.59548	702.21997	 32.10	
 18.709	  5.325	  0.48720	  0.53268	 -0.07672	  0.23197	  0.13725	 -0.01125	  0.59206	702.19000	 32.10	
 18.700	  0.000	  0.48863	  0.53407	 -0.07361	  0.20328	  0.16916	 -0.01106	  0.59115	702.26001	 32.10	
 18.709	 -5.325	  0.49290	  0.53509	 -0.07088	  0.17972	  0.19357	 -0.00881	  0.59249	702.28003	 32.10	
 18.703	-10.559	  0.49133	  0.52857	 -0.06741	  0.15286	  0.22125	 -0.01034	  0.58809	702.32001	 32.10	
 18.691	-15.915	  0.49390	  0.52536	 -0.06311	  0.12904	  0.24923	 -0.00999	  0.59146	702.23999	 32.10	
 18.706	-21.182	  0.49683	  0.51540	 -0.05623	  0.10283	  0.28467	 -0.01181	  0.59404	702.25000	 32.10	
 18.695	-26.463	  0.49768	  0.50184	 -0.04514	  0.08070	  0.31634	 -0.01177	  0.59362	702.25000	 32.10	
 18.704	-31.745	  0.49554	  0.48623	 -0.03544	  0.06088	  0.33806	 -0.01374	  0.58958	702.17999	 32.10	
 18.698	-37.048	  0.49392	  0.46581	 -0.02293	  0.04103	  0.36716	 -0.01099	  0.58644	702.19000	 32.10	
 18.699	-42.375	  0.49657	  0.44675	 -0.01017	  0.01958	  0.39643	 -0.01404	  0.59036	702.22998	 32.10	
 18.705	-47.657	  0.49840	  0.42295	  0.00478	  0.00250	  0.42385	 -0.01494	  0.59216	702.20001	 32.10	
 18.713	-52.933	  0.49956	  0.39817	  0.02615	 -0.00994	  0.44686	 -0.01572	  0.59219	702.34998	 32.00	
 18.700	-58.206	  0.50132	  0.37342	  0.04345	 -0.02168	  0.46610	 -0.01496	  0.59405	702.19000	 32.00	
 18.698	-63.496	  0.49969	  0.34281	  0.06468	 -0.03410	  0.48626	 -0.01624	  0.59275	702.21002	 32.00	
 18.707	-68.835	  0.50281	  0.31759	  0.08880	 -0.03709	  0.49728	 -0.01791	  0.59242	702.17999	 32.00	
 18.690	-74.137	  0.49995	  0.28444	  0.11022	 -0.04957	  0.51202	 -0.01820	  0.59390	702.29999	 32.00	
 18.696	-79.417	  0.49965	  0.25503	  0.13880	 -0.05259	  0.51698	 -0.02004	  0.59054	702.15997	 32.00	
 18.700	-84.691	  0.50065	  0.22484	  0.16632	 -0.05676	  0.52323	 -0.02062	  0.59268	702.26001	 32.00	
 18.700	-90.000	  0.50102	  0.19782	  0.19283	 -0.05473	  0.52513	 -0.01883	  0.59094	702.21002	 32.00	
 18.700	-95.309	  0.49967	  0.16749	  0.22169	 -0.05645	  0.52395	 -0.01929	  0.59072	702.25000	 32.00	
 18.696	-100.583	  0.49740	  0.13865	  0.25060	 -0.05106	  0.51631	 -0.02149	  0.58903	702.27002	 32.00	
 18.690	-105.863	  0.49640	  0.11256	  0.27886	 -0.05253	  0.51247	 -0.02746	  0.58958	702.28003	 32.00	
 18.707	-111.165	  0.49724	  0.09093	  0.30625	 -0.04687	  0.50188	 -0.02297	  0.59088	702.22998	 32.00	
 18.698	-116.504	  0.49337	  0.06276	  0.33672	 -0.04054	  0.48514	 -0.01912	  0.58890	702.20001	 32.00	
 18.700	-121.794	  0.49435	  0.04062	  0.36442	 -0.03301	  0.47163	 -0.02190	  0.58999	702.21002	 32.00	
 18.713	-127.067	  0.49779	  0.02183	  0.39408	 -0.01982	  0.45421	 -0.02147	  0.59488	702.21002	 32.00	
 18.705	-132.343	  0.49416	  0.00408	  0.41652	 -0.00756	  0.42740	 -0.02575	  0.59093	702.15997	 32.00	
 18.699	-137.625	  0.49399	 -0.01480	  0.44244	  0.01120	  0.40258	 -0.02434	  0.59047	702.16998	 32.00	
 18.698	-142.952	  0.49330	 -0.02918	  0.46551	  0.02563	  0.37698	 -0.02413	  0.59222	702.29999	 32.00	
 18.704	-148.255	  0.49049	 -0.03929	  0.48085	  0.04729	  0.34705	 -0.02275	  0.58696	702.21997	 32.00	
 18.695	-153.537	  0.48994	 -0.05561	  0.50005	  0.06551	  0.31745	 -0.02826	  0.59149	702.34998	 32.00	
 18.706	-158.818	  0.49368	 -0.05946	  0.51327	  0.08733	  0.29336	 -0.02730	  0.59407	702.22998	 31.90	
 18.691	-164.085	  0.49297	 -0.06729	  0.52530	  0.11552	  0.25913	 -0.02926	  0.59289	702.15002	 31.90	
 18.703	-169.441	  0.49154	 -0.07472	  0.53346	  0.13959	  0.22738	 -0.03158	  0.59468	702.27002	 31.90	
 18.709	-174.675	  0.48921	 -0.07617	  0.53333	  0.16494	  0.20184	 -0.03049	  0.59284	702.26001	 31.90	
 18.700	180.000	  0.48491	 -0.07842	  0.53510	  0.19105	  0.16923	 -0.03006	  0.59040	702.09998	 31.90	
 20.400	180.000	  0.46660	 -0.11030	  0.55166	  0.17481	  0.15722	 -0.03567	  0.59394	702.15997	 31.90	
 20.401	-175.153	  0.47007	 -0.10685	  0.55075	  0.14919	  0.18438	 -0.03882	  0.59458	702.15997	 31.90	
 20.407	-170.264	  0.46767	 -0.10685	  0.54498	  0.11983	  0.21533	 -0.03813	  0.59252	702.23999	 31.90	
 20.410	-165.423	  0.47107	 -0.10441	  0.54450	  0.09656	  0.24582	 -0.03811	  0.59744	702.29999	 31.90	
 20.392	-160.496	  0.46949	 -0.09513	  0.52982	  0.07218	  0.27263	 -0.03863	  0.59205	702.15002	 31.90	
 20.401	-155.705	  0.47444	 -0.08825	  0.51930	  0.04894	  0.30731	 -0.03694	  0.59773	702.17999	 31.90	
 20.405	-150.835	  0.47205	 -0.07632	  0.50257	  0.03030	  0.33400	 -0.03400	  0.59128	702.14001	 31.90	
 20.397	-145.903	  0.46729	 -0.06819	  0.48210	  0.00694	  0.35994	 -0.03293	  0.58683	702.09998	 31.90	
 20.392	-141.062	  0.47035	 -0.05025	  0.46076	 -0.00545	  0.38513	 -0.03366	  0.58713	702.21997	 31.90	
 20.396	-136.227	  0.47306	 -0.03697	  0.44128	 -0.01982	  0.41081	 -0.03277	  0.58874	702.21002	 31.90	
 20.408	-131.372	  0.47126	 -0.01910	  0.41413	 -0.03417	  0.43456	 -0.03064	  0.58635	702.17999	 31.90	
 20.410	-126.511	  0.47524	 -0.00433	  0.39322	 -0.04872	  0.46102	 -0.03110	  0.59160	702.13000	 31.90	
 20.400	-121.604	  0.47696	  0.01713	  0.36549	 -0.06109	  0.48259	 -0.02972	  0.59274	702.15997	 31.90	
 20.403	-116.741	  0.47494	  0.03783	  0.33659	 -0.07125	  0.49755	 -0.02788	  0.58944	702.13000	 31.90	
 20.413	-111.900	  0.47548	  0.05814	  0.31079	 -0.07388	  0.50904	 -0.02632	  0.58743	702.15997	 31.90	
 20.398	-107.004	  0.47761	  0.08610	  0.27635	 -0.08597	  0.52616	 -0.02976	  0.59473	702.09998	 31.90	
 20.394	-102.132	  0.48031	  0.10874	  0.25232	 -0.09047	  0.53657	 -0.02900	  0.59726	702.20001	 31.90	
 20.403	-97.332	  0.47968	  0.14128	  0.22031	 -0.08928	  0.53792	 -0.02904	  0.59257	702.15002	 31.90	
 20.392	-92.440	  0.47409	  0.16417	  0.19087	 -0.08938	  0.53587	 -0.02879	  0.58588	702.15002	 31.90	
 20.392	-87.560	  0.48122	  0.19546	  0.16628	 -0.08681	  0.53834	 -0.02714	  0.59242	702.09998	 31.80	
 20.403	-82.668	  0.48266	  0.22344	  0.14141	 -0.08758	  0.53886	 -0.02780	  0.59264	702.19000	 31.90	
 20.394	-77.868	  0.47561	  0.24974	  0.11167	 -0.08495	  0.52664	 -0.02642	  0.58662	702.17999	 31.80	
 20.398	-72.996	  0.48066	  0.28105	  0.08613	 -0.08139	  0.52304	 -0.02788	  0.59367	702.21997	 31.80	
 20.413	-68.100	  0.47992	  0.31204	  0.06134	 -0.07287	  0.51058	 -0.02701	  0.59181	702.15997	 31.80	
 20.403	-63.259	  0.47967	  0.34253	  0.03573	 -0.06985	  0.49892	 -0.02515	  0.59597	702.13000	 31.80	
 20.400	-58.396	  0.47887	  0.36856	  0.01813	 -0.05318	  0.47703	 -0.02244	  0.59132	702.09003	 31.80	
 20.410	-53.489	  0.47370	  0.39809	 -0.00676	 -0.04323	  0.45063	 -0.02407	  0.58860	702.16998	 31.80	
 20.408	-48.628	  0.47914	  0.41963	 -0.01478	 -0.02947	  0.43683	 -0.02590	  0.59087	702.09003	 31.80	
 20.396	-43.773	  0.47433	  0.44582	 -0.03809	 -0.01401	  0.40704	 -0.02356	  0.58816	702.20001	 31.80	
 20.392	-38.938	  0.47778	  0.47278	 -0.05608	 -0.00290	  0.38604	 -0.02150	  0.59691	702.13000	 31.80	
 20.397	-34.097	  0.47441	  0.49005	 -0.06885	  0.01425	  0.35525	 -0.02079	  0.59273	702.08002	 31.80	
 20.405	-29.165	  0.47649	  0.50779	 -0.07831	  0.03854	  0.32592	 -0.02103	  0.59463	702.14001	 31.80	
 20.401	-24.295	  0.47342	  0.51971	 -0.08525	  0.05872	  0.30045	 -0.02150	  0.59420	702.12000	 31.80	
 20.392	-19.504	  0.47127	  0.52883	 -0.09136	  0.08342	  0.26655	 -0.02103	  0.59036	702.13000	 31.80	
 20.410	-14.577	  0.46760	  0.53588	 -0.09799	  0.10657	  0.23525	 -0.01966	  0.58699	702.20001	 31.80	
 20.407	 -9.736	  0.46317	  0.53977	 -0.10528	  0.12955	  0.20543	 -0.01867	  0.58625	702.14001	 31.80	
 20.401	 -4.847	  0.46811	  0.54364	 -0.10196	  0.16142	  0.17620	 -0.01987	  0.58564	702.16998	 31.80	
 20.400	  0.000	  0.46965	  0.54828	 -0.10442	  0.19470	  0.14476	 -0.01796	  0.59094	702.20001	 31.80	
 20.401	  4.847	  0.46550	  0.54381	 -0.10728	  0.21818	  0.11674	 -0.01865	  0.58909	702.23999	 31.80	
 20.407	  9.736	  0.46533	  0.53914	 -0.10639	  0.24561	  0.09290	 -0.02325	  0.59107	702.26001	 31.80	
 20.410	 14.577	  0.46086	  0.53001	 -0.10232	  0.27553	  0.06167	 -0.02066	  0.58831	702.20001	 31.80	
 20.392	 19.504	  0.46133	  0.51703	 -0.09600	  0.30557	  0.03880	 -0.01907	  0.58665	702.20001	 31.80	
 20.401	 24.295	  0.46493	  0.50914	 -0.09069	  0.33196	  0.01975	 -0.02124	  0.59340	702.07001	 31.80	
 20.405	 29.165	  0.46001	  0.49258	 -0.08382	  0.36179	 -0.00384	 -0.02407	  0.59292	702.09998	 31.80	
 20.397	 34.097	  0.46201	  0.47073	 -0.07103	  0.39483	 -0.02830	 -0.02341	  0.59381	702.14001	 31.80	
 20.392	 38.938	  0.46142	  0.44752	 -0.05628	  0.41900	 -0.04150	 -0.02589	  0.59114	702.09998	 31.80	
 20.396	 43.773	  0.45995	  0.42485	 -0.04442	  0.44085	 -0.05836	 -0.02107	  0.58960	702.14001	 31.80	
 20.408	 48.628	  0.45583	  0.40105	 -0.03282	  0.46617	 -0.07756	 -0.02349	  0.59211	702.19000	 31.70	
 20.410	 53.489	  0.45835	  0.37584	 -0.01402	  0.48768	 -0.08811	 -0.02480	  0.59417	702.13000	 31.70	
 20.400	 58.396	  0.45434	  0.34266	  0.00915	  0.50031	 -0.09415	 -0.02467	  0.58592	702.21002	 31.70	
 20.403	 63.259	  0.45752	  0.31658	  0.02798	  0.52099	 -0.10707	 -0.02535	  0.59162	702.09998	 31.70	
 20.413	 68.100	  0.46309	  0.28716	  0.05524	  0.53696	 -0.11292	 -0.02371	  0.59601	702.14001	 31.70	
 20.398	 72.996	  0.45687	  0.25779	  0.07604	  0.54173	 -0.11708	 -0.02553	  0.59101	702.06000	 31.70	
 20.394	 77.868	  0.46030	  0.22161	  0.10802	  0.55004	 -0.11839	 -0.02636	  0.59172	702.15002	 31.70	
 20.403	 82.668	  0.45475	  0.19485	  0.12493	  0.56016	 -0.13120	 -0.02724	  0.59390	702.15997	 31.70	
 20.392	 87.560	  0.45842	  0.16747	  0.15504	  0.55583	 -0.12723	 -0.02543	  0.59207	702.15997	 31.70	
 20.392	 92.440	  0.45286	  0.13995	  0.17982	  0.55518	 -0.12964	 -0.02763	  0.58802	702.23999	 31.70	
 20.403	 97.332	  0.45324	  0.10894	  0.20991	  0.55334	 -0.12974	 -0.02456	  0.58977	702.12000	 31.70	
 20.394	102.132	  0.45862	  0.08997	  0.23929	  0.54887	 -0.12215	 -0.03003	  0.59243	702.06000	 31.70	
 20.398	107.004	  0.45890	  0.06650	  0.27106	  0.53764	 -0.11205	 -0.02946	  0.59182	702.15997	 31.70	
 20.413	111.900	  0.45596	  0.03733	  0.29869	  0.52877	 -0.11340	 -0.03101	  0.59231	702.15002	 31.70	
 20.403	116.741	  0.45197	  0.01580	  0.32683	  0.50914	 -0.10373	 -0.03096	  0.58516	702.16998	 31.70	
 20.400	121.604	  0.45783	 -0.00300	  0.35806	  0.49522	 -0.09358	 -0.03586	  0.59227	702.13000	 31.70	
 20.410	126.511	  0.45263	 -0.02425	  0.38420	  0.47373	 -0.08451	 -0.03475	  0.58837	702.14001	 31.70	
 20.408	131.372	  0.45818	 -0.03960	  0.41225	  0.45181	 -0.06690	 -0.03308	  0.59119	702.15997	 31.70	
 20.396	136.227	  0.46110	 -0.05150	  0.43677	  0.43177	 -0.05054	 -0.03704	  0.59373	702.15997	 31.70	
 20.392	141.062	  0.45962	 -0.06421	  0.45563	  0.40549	 -0.03690	 -0.03931	  0.59140	702.13000	 31.70	
 20.397	145.903	  0.45679	 -0.07708	  0.47620	  0.37449	 -0.01809	 -0.04105	  0.58752	702.14001	 31.70	
 20.405	150.835	  0.45906	 -0.08755	  0.49790	  0.34846	  0.00199	 -0.03955	  0.59073	702.08002	 31.70	
 20.401	155.705	  0.45922	 -0.09400	  0.51091	  0.32157	  0.02369	 -0.03902	  0.58878	702.09998	 31.70	
 20.392	160.496	  0.46028	 -0.09999	  0.52409	  0.29096	  0.04412	 -0.04033	  0.59051	702.15002	 31.70	
 20.410	165.423	  0.46187	 -0.10263	  0.53271	  0.26398	  0.07165	 -0.03698	  0.58750	702.21002	 31.70	
 20.407	170.264	  0.46253	 -0.10874	  0.54333	  0.23583	  0.09484	 -0.03877	  0.58989	702.15997	 31.70	
 20.401	175.153	  0.46560	 -0.10802	  0.54725	  0.20987	  0.12005	 -0.04230	  0.59199	702.09998	 31.70	
  0.141	 45.000	  0.58832	  0.26603	  0.27194	  0.28632	  0.24583	  0.05271	  0.58697	702.15997	 31.70	
  4.001	128.691	  0.58416	  0.21584	  0.31214	  0.33417	  0.18999	  0.04710	  0.58695	702.07001	 31.70	
  4.002	 76.995	  0.58817	  0.27491	  0.25634	  0.34910	  0.18505	  0.05235	  0.59194	702.15997	 31.70	
  4.002	 25.892	  0.58929	  0.32755	  0.20889	  0.30939	  0.21645	  0.04908	  0.59290	702.07001	 31.70	
  4.002	-25.892	  0.58764	  0.33021	  0.20930	  0.25556	  0.27063	  0.05174	  0.58967	702.04999	 31.60	
  4.002	-76.995	  0.59371	  0.28018	  0.25782	  0.22010	  0.31889	  0.05129	  0.59323	702.10999	 31.70	
  4.001	-128.691	  0.58947	  0.22519	  0.31312	  0.22769	  0.30183	  0.04763	  0.59029	702.15997	 31.60	
  4.000	180.000	  0.58601	  0.19767	  0.33976	  0.27828	  0.24327	  0.04457	  0.58846	702.12000	 31.60	
  8.000	180.000	  0.57364	  0.11755	  0.40560	  0.26461	  0.23087	  0.02689	  0.58888	702.09003	 31.60	
  7.991	-152.370	  0.57757	  0.13624	  0.38788	  0.20371	  0.30097	  0.02942	  0.59049	702.03003	 31.60	
  7.997	-124.550	  0.57944	  0.17784	  0.34037	  0.16314	  0.35516	  0.03410	  0.58897	702.09998	 31.60	
  8.006	-96.837	  0.57855	  0.23687	  0.27585	  0.13927	  0.38523	  0.03563	  0.58762	702.15002	 31.60	
  7.988	-69.228	  0.57908	  0.30606	  0.20942	  0.14852	  0.37289	  0.03778	  0.58864	702.19000	 31.60	
  7.997	-41.563	  0.57965	  0.36421	  0.16160	  0.18605	  0.32650	  0.03872	  0.58970	702.03003	 31.60	
  8.008	-13.821	  0.57324	  0.39478	  0.13015	  0.23782	  0.26233	  0.03926	  0.58651	702.14001	 31.60	
  8.008	 13.821	  0.57551	  0.39359	  0.13202	  0.30561	  0.19537	  0.03924	  0.58930	702.14001	 31.60	
  7.997	 41.563	  0.57562	  0.36115	  0.15426	  0.36519	  0.14472	  0.03873	  0.59342	702.17999	 31.60	
  7.988	 69.228	  0.57491	  0.29629	  0.20832	  0.40684	  0.10972	  0.03891	  0.59264	702.17999	 31.60	
  8.006	 96.837	  0.57521	  0.22874	  0.27092	  0.40990	  0.10614	  0.03412	  0.59422	702.19000	 31.60	
  7.997	124.550	  0.57545	  0.16768	  0.33836	  0.39223	  0.12087	  0.03271	  0.59508	702.10999	 31.60	
  7.991	152.370	  0.57066	  0.13210	  0.38442	  0.33061	  0.16613	  0.02691	  0.58812	702.15002	 31.60	
 12.009	161.059	  0.54720	  0.04681	  0.45016	  0.31387	  0.14278	  0.00574	  0.59034	702.13000	 31.60	
 12.013	142.081	  0.54864	  0.07567	  0.40724	  0.37572	  0.09583	  0.00604	  0.59058	702.15997	 31.60	
 12.006	123.113	  0.54203	  0.11247	  0.35078	  0.43099	  0.04808	  0.00944	  0.58737	702.19000	 31.60	
 12.007	104.200	  0.54429	  0.17183	  0.28385	  0.46180	  0.03077	  0.01358	  0.58861	702.16998	 31.60	
 11.989	 85.301	  0.54332	  0.24017	  0.21344	  0.47084	  0.02193	  0.01629	  0.58814	702.19000	 31.60	
 12.013	 66.294	  0.54566	  0.31032	  0.15163	  0.45356	  0.03375	  0.01703	  0.59014	702.23999	 31.60	
 12.012	 47.388	  0.54815	  0.37642	  0.10099	  0.41224	  0.06798	  0.01884	  0.59366	702.19000	 31.60	
 11.990	 28.440	  0.55411	  0.42704	  0.07069	  0.35650	  0.11787	  0.02272	  0.59577	702.12000	 31.60	
 11.991	  9.464	  0.55281	  0.45826	  0.04825	  0.28296	  0.17904	  0.02543	  0.59507	702.28003	 31.60	
 11.991	 -9.464	  0.55641	  0.45855	  0.05179	  0.22026	  0.24466	  0.02356	  0.59444	702.13000	 31.60	
 11.990	-28.440	  0.55788	  0.43260	  0.07441	  0.15766	  0.31887	  0.02204	  0.59213	702.19000	 31.60	
 12.012	-47.388	  0.55921	  0.38790	  0.10750	  0.10759	  0.38142	  0.02125	  0.59278	702.21002	 31.60	
 12.013	-66.294	  0.56073	  0.32788	  0.15983	  0.07852	  0.42325	  0.02048	  0.59411	702.17999	 31.60	
 11.989	-85.301	  0.55309	  0.25019	  0.22120	  0.06245	  0.44193	  0.01842	  0.58566	702.09998	 31.60	
 12.007	-104.200	  0.55861	  0.19067	  0.28579	  0.06443	  0.44047	  0.01549	  0.59152	702.17999	 31.60	
 12.006	-123.113	  0.55714	  0.12829	  0.35511	  0.08147	  0.41080	  0.00998	  0.59055	702.07001	 31.60	
 12.013	-142.081	  0.55647	  0.08271	  0.41281	  0.12859	  0.34824	  0.00897	  0.59184	702.15997	 31.60	
 12.009	-161.059	  0.55247	  0.05582	  0.44673	  0.17915	  0.28541	  0.00711	  0.58847	702.16998	 31.60	
 16.000	180.000	  0.51760	 -0.03127	  0.50978	  0.21030	  0.19247	 -0.01719	  0.59252	702.16998	 31.60	
 15.990	-165.604	  0.51422	 -0.02113	  0.49379	  0.14631	  0.26113	 -0.01484	  0.58582	702.13000	 31.60	
 16.002	-151.165	  0.51908	 -0.00534	  0.47222	  0.09216	  0.32928	 -0.01352	  0.59102	702.17999	 31.50	
 16.002	-136.836	  0.52031	  0.03183	  0.42106	  0.04675	  0.39776	 -0.01042	  0.58972	702.15002	 31.50	
 15.995	-122.439	  0.52705	  0.07656	  0.36994	  0.01681	  0.44638	 -0.00982	  0.59487	702.09998	 31.50	
 15.993	-107.966	  0.52325	  0.13115	  0.30018	 -0.00367	  0.47952	 -0.00691	  0.58915	702.17999	 31.50	
 16.005	-93.629	  0.52583	  0.19672	  0.23055	 -0.00940	  0.49231	 -0.00594	  0.58878	702.15002	 31.50	
 15.992	-79.234	  0.53008	  0.26942	  0.16457	 -0.00391	  0.48863	 -0.00515	  0.59378	702.04999	 31.50	
 16.009	-64.774	  0.52841	  0.33710	  0.10565	  0.01172	  0.46321	 -0.00316	  0.59047	702.08002	 31.50	
 15.997	-50.364	  0.52211	  0.39806	  0.05598	  0.03846	  0.41621	  0.00055	  0.58707	702.07001	 31.50	
 15.997	-36.045	  0.52557	  0.45511	  0.01867	  0.08548	  0.35539	  0.00126	  0.59130	702.09003	 31.50	
 16.000	-21.597	  0.52075	  0.48809	 -0.00751	  0.13344	  0.29151	  0.00307	  0.59057	702.15002	 31.50	
 16.003	 -7.169	  0.52122	  0.50587	 -0.01874	  0.19554	  0.21964	  0.00500	  0.59210	702.13000	 31.50	
 16.003	  7.169	  0.51778	  0.49974	 -0.01900	  0.26479	  0.15105	  0.00362	  0.58996	702.08002	 31.50	
 16.000	 21.597	  0.51384	  0.47650	 -0.00815	  0.33095	  0.08969	 -0.00027	  0.58879	702.16998	 31.50	
 15.997	 36.045	  0.50772	  0.43300	  0.01462	  0.39354	  0.03615	 -0.00047	  0.58436	702.15002	 31.50	
 15.997	 50.364	  0.51179	  0.38392	  0.04863	  0.45339	 -0.00389	 -0.00212	  0.59422	702.08002	 31.50	
 16.009	 64.774	  0.50595	  0.31453	  0.09647	  0.49013	 -0.03189	 -0.00325	  0.58764	702.12000	 31.50	
 15.992	 79.234	  0.50915	  0.24666	  0.15603	  0.51636	 -0.04451	 -0.00314	  0.59136	702.12000	 31.50	
 16.005	 93.629	  0.51365	  0.17750	  0.22788	  0.52186	 -0.04795	 -0.00369	  0.59623	702.16998	 31.50	
 15.993	107.966	  0.50400	  0.11554	  0.28698	  0.49663	 -0.03813	 -0.00784	  0.58506	702.13000	 31.50	
 15.995	122.439	  0.50683	  0.06042	  0.35980	  0.46125	 -0.01594	 -0.00958	  0.58679	702.08002	 31.50	
 16.002	136.836	  0.50880	  0.01774	  0.42092	  0.41388	  0.01698	 -0.01196	  0.58851	702.17999	 31.50	
 16.002	151.165	  0.51368	 -0.01379	  0.47250	  0.35166	  0.06691	 -0.01551	  0.59397	702.12000	 31.50	
 15.990	165.604	  0.51403	 -0.03009	  0.50179	  0.28429	  0.11974	 -0.01580	  0.59311	702.19000	 31.50	
 20.003	168.362	  0.47218	 -0.10094	  0.54158	  0.25079	  0.09158	 -0.03674	  0.59472	702.15997	 31.50	
 20.008	156.764	  0.46226	 -0.09044	  0.51218	  0.31651	  0.02920	 -0.03476	  0.58852	702.14001	 31.50	
 20.000	145.147	  0.46212	 -0.06838	  0.47079	  0.38489	 -0.01752	 -0.03331	  0.58824	702.14001	 31.50	
 19.995	133.545	  0.45841	 -0.03684	  0.42003	  0.43680	 -0.05400	 -0.02982	  0.58609	702.08002	 31.50	
 20.009	121.926	  0.45649	  0.00178	  0.35462	  0.48798	 -0.08484	 -0.03273	  0.58395	702.08002	 31.50	
 20.005	110.327	  0.46069	  0.05246	  0.28950	  0.52920	 -0.10907	 -0.02960	  0.59123	702.13000	 31.50	
 19.989	 98.733	  0.45819	  0.10919	  0.22034	  0.54627	 -0.11768	 -0.02374	  0.58851	702.08002	 31.50	
 19.999	 87.075	  0.45953	  0.17500	  0.15319	  0.55320	 -0.12068	 -0.02180	  0.59182	702.13000	 31.50	
 19.992	 75.457	  0.46131	  0.24554	  0.08999	  0.54453	 -0.11489	 -0.02245	  0.59163	702.09003	 31.50	
 20.009	 63.844	  0.45818	  0.31188	  0.03464	  0.51770	 -0.10316	 -0.02276	  0.58925	702.09998	 31.50	
 19.989	 52.269	  0.46495	  0.38278	 -0.00860	  0.47471	 -0.07089	 -0.02364	  0.59122	702.12000	 31.50	
 19.999	 40.602	  0.46520	  0.43929	 -0.04524	  0.42535	 -0.04115	 -0.02320	  0.59066	702.09998	 31.50	
 20.004	 29.051	  0.46278	  0.48541	 -0.07340	  0.36293	 -0.00087	 -0.01899	  0.58667	702.08002	 31.50	
 20.005	 17.433	  0.46460	  0.52223	 -0.09420	  0.29531	  0.04872	 -0.01889	  0.59093	702.02002	 31.50	
 20.006	  5.780	  0.47204	  0.53982	 -0.09669	  0.22703	  0.11882	 -0.01797	  0.59041	701.98999	 31.50	
 20.006	 -5.780	  0.47513	  0.54835	 -0.10106	  0.16083	  0.18298	 -0.01687	  0.59505	702.10999	 31.50	
 20.005	-17.433	  0.47766	  0.52950	 -0.08554	  0.09990	  0.25821	 -0.01726	  0.59005	702.09003	 31.50	
 20.004	-29.051	  0.47180	  0.49940	 -0.06878	  0.04503	  0.32107	 -0.01801	  0.58528	702.14001	 31.50	
 19.999	-40.602	  0.47638	  0.45384	 -0.03622	  0.00150	  0.38864	 -0.01946	  0.58617	702.09998	 31.50	
 19.989	-52.269	  0.48713	  0.40759	  0.00052	 -0.03063	  0.44956	 -0.02241	  0.59695	702.14001	 31.50	
 20.009	-63.844	  0.48559	  0.33947	  0.04951	 -0.05580	  0.49260	 -0.02424	  0.59121	702.06000	 31.50	
 19.992	-75.457	  0.48216	  0.26834	  0.10357	 -0.07778	  0.52439	 -0.02444	  0.59103	702.04999	 31.50	
 19.999	-87.075	  0.48557	  0.20285	  0.16612	 -0.08096	  0.53590	 -0.02693	  0.59270	702.09003	 31.50	
 19.989	-98.733	  0.47848	  0.13254	  0.23035	 -0.08168	  0.52977	 -0.02573	  0.58828	702.15002	 31.50	
 20.005	-110.327	  0.48117	  0.07540	  0.30207	 -0.06917	  0.51045	 -0.03023	  0.58909	702.00000	 31.50	
 20.009	-121.926	  0.47721	  0.02377	  0.36594	 -0.05223	  0.47467	 -0.03270	  0.58739	702.20001	 31.50	
 19.995	-133.545	  0.47885	 -0.02679	  0.43125	 -0.02753	  0.42971	 -0.03051	  0.59339	702.08002	 31.50	
 20.000	-145.147	  0.47342	 -0.05544	  0.47420	  0.01147	  0.36411	 -0.03408	  0.58771	702.03998	 31.40	
 20.008	-156.764	  0.47475	 -0.08138	  0.51496	  0.06133	  0.29684	 -0.03568	  0.58895	702.07001	 31.40	
 20.003	-168.362	  0.47310	 -0.09092	  0.53615	  0.11900	  0.22617	 -0.03584	  0.58799	702.15997	 31.40	
 20.000	180.000	  0.47075	 -0.09557	  0.54110	  0.18211	  0.15722	 -0.03676	  0.58720	702.15002	 31.50	
