FileType=PCF
NHL=14
Date=08/26/17	14:19:01
Facility=APL
Serial=16328-9
Customer=NASA
NP=6
Mach=0.050000
Calibration=1:1
CalPts=490
TstPts=95
PortNumbering=AP Standard
Units=Torr C m/s kg/m^3 deg mm 
Theta[deg]	Phi[deg]	P1[Torr]	P2[Torr]	P3[Torr]	P4[Torr]	P5[Torr]	P6[Torr]	Pt[Torr]	Ps[Abs,Torr]	Ts[C]	
  0.000	  0.000	  1.27802	  0.71033	  0.68471	  0.70069	  0.70107	  0.00543	  1.26998	709.30200	 23.20	
  1.691	128.401	  1.28188	  0.66671	  0.72516	  0.74831	  0.65102	  0.00612	  1.27261	709.13300	 23.20	
  1.692	 77.194	  1.28153	  0.71027	  0.67684	  0.75946	  0.64299	  0.00630	  1.27262	709.16400	 23.20	
  1.699	 26.182	  1.28246	  0.75203	  0.64219	  0.72681	  0.66985	  0.00513	  1.27384	709.22601	 23.20	
  1.699	-26.182	  1.27883	  0.74946	  0.63914	  0.67404	  0.71854	  0.00349	  1.27066	709.28198	 23.20	
  1.692	-77.194	  1.27885	  0.70938	  0.67388	  0.64555	  0.75340	  0.00416	  1.27076	709.21802	 23.20	
  1.691	-128.401	  1.27856	  0.65747	  0.72673	  0.65437	  0.74097	  0.00490	  1.27072	709.23401	 23.20	
  1.700	180.000	  1.27653	  0.63953	  0.74870	  0.69730	  0.69104	  0.00573	  1.26719	709.22900	 23.20	
  3.400	180.000	  1.27377	  0.57306	  0.80946	  0.69111	  0.68464	  0.00243	  1.26687	709.11798	 23.20	
  3.388	-152.325	  1.27712	  0.58405	  0.79783	  0.63687	  0.74506	  0.00141	  1.27023	709.39398	 23.20	
  3.397	-124.529	  1.27189	  0.61707	  0.75202	  0.59381	  0.78909	  0.00000	  1.26727	709.30103	 23.10	
  3.399	-96.763	  1.27332	  0.67110	  0.69606	  0.57571	  0.81197	 -0.00208	  1.26827	709.32898	 23.10	
  3.394	-69.283	  1.27800	  0.73367	  0.64043	  0.58654	  0.80734	 -0.00198	  1.27383	709.23901	 23.10	
  3.400	-41.398	  1.27771	  0.78604	  0.59568	  0.61674	  0.77219	 -0.00008	  1.27285	709.26001	 23.10	
  3.401	-14.021	  1.27461	  0.81267	  0.57097	  0.66182	  0.71783	  0.00158	  1.26818	709.20599	 23.10	
  3.401	 14.021	  1.28028	  0.81685	  0.57490	  0.72558	  0.66127	  0.00251	  1.27308	709.34100	 23.10	
  3.400	 41.398	  1.27996	  0.78922	  0.59788	  0.77891	  0.61355	  0.00437	  1.27215	709.31799	 23.10	
  3.394	 69.283	  1.27957	  0.73769	  0.64166	  0.81452	  0.58296	  0.00327	  1.27141	709.30701	 23.10	
  3.399	 96.763	  1.27772	  0.67826	  0.69805	  0.82111	  0.57596	  0.00275	  1.26955	709.33197	 23.10	
  3.397	124.529	  1.27661	  0.62667	  0.75336	  0.79852	  0.59353	  0.00405	  1.26845	709.23401	 23.10	
  3.388	152.325	  1.27494	  0.58939	  0.79470	  0.75141	  0.63069	  0.00436	  1.26786	709.21399	 23.10	
  5.099	161.165	  1.27565	  0.51557	  0.86346	  0.74862	  0.62043	 -0.00157	  1.27316	709.26202	 23.10	
  5.109	142.013	  1.27560	  0.54546	  0.83058	  0.80708	  0.56990	 -0.00196	  1.27342	709.27100	 23.10	
  5.095	123.033	  1.27720	  0.59020	  0.78377	  0.85258	  0.53551	 -0.00039	  1.27342	709.14099	 23.10	
  5.105	104.191	  1.27983	  0.64434	  0.72639	  0.88144	  0.51489	 -0.00057	  1.27563	709.13501	 23.10	
  5.093	 85.207	  1.27480	  0.70320	  0.66205	  0.88335	  0.50886	  0.00041	  1.27139	709.30200	 23.10	
  5.104	 66.290	  1.27669	  0.76407	  0.60374	  0.86794	  0.52117	 -0.00129	  1.27281	709.28497	 23.10	
  5.094	 47.331	  1.27456	  0.81802	  0.55442	  0.83092	  0.55126	  0.00167	  1.27124	709.46698	 23.10	
  5.089	 28.397	  1.27245	  0.85601	  0.51934	  0.77767	  0.59431	 -0.00056	  1.26915	709.25403	 23.10	
  5.096	  9.576	  1.27485	  0.87881	  0.50265	  0.71862	  0.65174	 -0.00252	  1.27339	709.27698	 23.10	
  5.096	 -9.576	  1.27132	  0.87540	  0.50053	  0.65353	  0.71153	 -0.00525	  1.27191	709.21198	 23.10	
  5.089	-28.397	  1.27185	  0.85366	  0.51921	  0.59891	  0.77121	 -0.00492	  1.27248	709.22601	 23.10	
  5.094	-47.331	  1.27249	  0.81194	  0.55356	  0.55277	  0.82303	 -0.00843	  1.27444	709.20801	 23.10	
  5.104	-66.290	  1.27137	  0.75705	  0.60042	  0.52118	  0.85925	 -0.00883	  1.27267	709.27002	 23.10	
  5.093	-85.207	  1.27204	  0.69500	  0.65794	  0.50587	  0.87512	 -0.01001	  1.27310	709.24500	 23.10	
  5.105	-104.191	  1.26626	  0.63060	  0.71960	  0.50885	  0.86576	 -0.00722	  1.26740	709.30499	 23.10	
  5.095	-123.033	  1.26978	  0.57898	  0.77948	  0.53305	  0.83998	 -0.00489	  1.27065	709.22803	 23.10	
  5.109	-142.013	  1.27200	  0.53832	  0.82953	  0.57298	  0.79616	 -0.00345	  1.27139	709.29901	 23.10	
  5.099	-161.165	  1.27439	  0.51186	  0.86239	  0.62319	  0.74122	 -0.00386	  1.27339	709.30499	 23.10	
  5.100	180.000	  1.27764	  0.50486	  0.87643	  0.68525	  0.68155	 -0.00183	  1.27559	707.87701	 23.10	
  6.800	180.000	  1.26848	  0.43344	  0.93303	  0.67434	  0.66891	 -0.00830	  1.27542	709.32098	 23.10	
  6.796	-166.229	  1.26477	  0.43899	  0.92129	  0.61381	  0.72695	 -0.00775	  1.27117	709.32098	 23.10	
  6.808	-152.311	  1.26556	  0.45611	  0.89984	  0.55928	  0.78657	 -0.00880	  1.27412	709.29102	 23.10	
  6.795	-138.383	  1.26043	  0.48464	  0.85840	  0.50915	  0.83704	 -0.01183	  1.26952	709.28400	 23.10	
  6.792	-124.591	  1.25959	  0.52666	  0.80977	  0.47241	  0.88001	 -0.01244	  1.26909	709.32098	 23.10	
  6.787	-110.754	  1.25955	  0.57830	  0.75385	  0.44841	  0.91183	 -0.01300	  1.27197	709.17499	 23.10	
  6.800	-96.985	  1.25503	  0.63192	  0.69180	  0.43345	  0.92535	 -0.01601	  1.26701	709.06598	 23.10	
  6.800	-83.015	  1.26267	  0.69882	  0.63311	  0.43691	  0.93149	 -0.01745	  1.27573	709.35199	 23.10	
  6.787	-69.246	  1.25675	  0.75598	  0.57426	  0.44854	  0.91168	 -0.01700	  1.26960	709.24200	 23.10	
  6.792	-55.409	  1.25680	  0.81394	  0.52114	  0.47117	  0.88251	 -0.01773	  1.26996	709.35999	 23.10	
  6.795	-41.617	  1.25609	  0.86209	  0.48072	  0.50982	  0.83799	 -0.01513	  1.26735	709.22900	 23.10	
  6.808	-27.689	  1.25786	  0.90203	  0.45022	  0.55900	  0.78521	 -0.01252	  1.26880	709.32898	 23.10	
  6.796	-13.771	  1.25871	  0.92535	  0.43200	  0.61349	  0.72773	 -0.01068	  1.26881	709.32898	 23.10	
  6.800	  0.000	  1.25578	  0.93183	  0.42416	  0.67069	  0.66553	 -0.00933	  1.26533	709.36102	 23.10	
  6.796	 13.771	  1.25738	  0.92585	  0.43152	  0.73252	  0.60809	 -0.00893	  1.26481	709.44202	 23.10	
  6.808	 27.689	  1.25988	  0.90353	  0.45131	  0.79278	  0.55407	 -0.00779	  1.26697	709.33002	 23.10	
  6.795	 41.617	  1.26021	  0.86806	  0.48416	  0.84601	  0.51001	 -0.00553	  1.26596	709.28400	 23.10	
  6.792	 55.409	  1.26500	  0.82299	  0.52728	  0.89121	  0.47586	 -0.00542	  1.27097	709.18103	 23.10	
  6.787	 69.246	  1.26196	  0.76613	  0.57654	  0.92062	  0.44969	 -0.00546	  1.26744	709.18701	 23.10	
  6.800	 83.015	  1.26174	  0.70618	  0.63258	  0.93633	  0.43615	 -0.00704	  1.26752	709.21997	 23.10	
  6.800	 96.985	  1.26930	  0.64883	  0.69829	  0.94222	  0.43893	 -0.00746	  1.27481	709.21399	 23.10	
  6.787	110.754	  1.26282	  0.58841	  0.75583	  0.92127	  0.45028	 -0.00751	  1.26826	709.12500	 23.10	
  6.792	124.591	  1.26603	  0.53833	  0.81352	  0.89344	  0.47422	 -0.00844	  1.27203	709.13800	 23.10	
  6.795	138.383	  1.26724	  0.49701	  0.86268	  0.85021	  0.51092	 -0.00725	  1.27318	709.20398	 23.10	
  6.808	152.311	  1.26526	  0.46229	  0.89909	  0.79617	  0.55430	 -0.00715	  1.27241	709.21997	 23.10	
  6.796	166.229	  1.26289	  0.44072	  0.92035	  0.73461	  0.60678	 -0.00687	  1.26979	709.27899	 23.10	
  8.491	168.704	  1.24984	  0.36778	  0.97524	  0.72183	  0.59072	 -0.01470	  1.27056	709.24298	 23.10	
  8.502	157.493	  1.25405	  0.38477	  0.95950	  0.78520	  0.53678	 -0.01510	  1.27435	709.30200	 23.10	
  8.494	146.194	  1.25173	  0.41268	  0.92610	  0.84225	  0.48575	 -0.01563	  1.27179	709.35999	 23.10	
  8.495	135.039	  1.24568	  0.44580	  0.87948	  0.88905	  0.44056	 -0.01713	  1.26568	709.27899	 23.10	
  8.487	123.723	  1.24856	  0.49298	  0.82958	  0.93350	  0.40879	 -0.01610	  1.26872	709.22900	 23.10	
  8.492	112.575	  1.25300	  0.54354	  0.77669	  0.96899	  0.38337	 -0.01741	  1.27420	709.27002	 23.10	
  8.510	101.220	  1.25006	  0.60301	  0.71173	  0.98838	  0.36746	 -0.01617	  1.26981	709.18903	 23.10	
  8.500	 90.000	  1.25317	  0.66557	  0.65086	  0.99721	  0.36353	 -0.01652	  1.27335	709.17499	 23.10	
  8.510	 78.780	  1.25305	  0.72735	  0.59074	  0.99053	  0.36879	 -0.01403	  1.27292	709.28998	 23.10	
  8.492	 67.425	  1.25093	  0.78664	  0.52986	  0.96745	  0.38240	 -0.01476	  1.27058	709.27600	 23.10	
  8.487	 56.277	  1.24892	  0.84198	  0.48025	  0.93584	  0.40851	 -0.01243	  1.26940	709.26703	 23.10	
  8.495	 44.961	  1.24900	  0.89330	  0.43581	  0.89334	  0.44296	 -0.01314	  1.26983	709.31598	 23.10	
  8.494	 33.806	  1.24755	  0.93408	  0.39994	  0.84070	  0.48579	 -0.01315	  1.26897	709.34100	 23.10	
  8.502	 22.507	  1.24570	  0.96411	  0.37396	  0.78409	  0.53527	 -0.01418	  1.26831	709.37201	 23.10	
  8.491	 11.296	  1.24803	  0.98425	  0.35890	  0.72342	  0.59317	 -0.01720	  1.27181	709.29797	 23.10	
  8.500	  0.000	  1.24308	  0.98686	  0.35237	  0.65788	  0.65208	 -0.01903	  1.26867	709.21997	 23.10	
  8.491	-11.296	  1.24588	  0.98207	  0.35937	  0.59821	  0.71678	 -0.01808	  1.27213	709.37799	 23.10	
  8.502	-22.507	  1.24007	  0.95649	  0.37241	  0.53750	  0.77397	 -0.02064	  1.26627	709.33197	 23.10	
  8.494	-33.806	  1.23822	  0.92261	  0.39857	  0.48514	  0.83054	 -0.02218	  1.26541	709.14203	 23.10	
  8.495	-44.961	  1.23658	  0.87926	  0.43160	  0.44039	  0.88025	 -0.02558	  1.26438	709.33801	 23.10	
  8.487	-56.277	  1.23591	  0.82612	  0.47420	  0.40407	  0.92039	 -0.02711	  1.26441	709.16901	 23.10	
  8.492	-67.425	  1.24289	  0.77173	  0.52922	  0.38085	  0.95628	 -0.02778	  1.27010	709.22198	 23.10	
  8.510	-78.780	  1.24220	  0.71141	  0.58442	  0.36416	  0.97523	 -0.02813	  1.27038	709.25299	 23.10	
  8.500	-90.000	  1.24291	  0.64877	  0.64809	  0.35957	  0.98229	 -0.02675	  1.27162	709.25598	 23.20	
  8.510	-101.220	  1.24458	  0.58867	  0.71048	  0.36486	  0.97658	 -0.02427	  1.27275	709.32898	 23.20	
  8.492	-112.575	  1.24466	  0.53005	  0.77234	  0.37991	  0.95575	 -0.02192	  1.27218	709.37201	 23.20	
  8.487	-123.723	  1.24619	  0.47922	  0.83040	  0.40588	  0.92371	 -0.02067	  1.27133	709.20599	 23.20	
  8.495	-135.039	  1.24793	  0.43629	  0.88283	  0.44178	  0.88270	 -0.01904	  1.27158	709.27002	 23.10	
  8.494	-146.194	  1.24989	  0.40191	  0.92461	  0.48538	  0.83197	 -0.01836	  1.27245	709.03998	 23.10	
  8.502	-157.493	  1.25319	  0.37980	  0.95864	  0.54047	  0.77545	 -0.01513	  1.27315	709.20398	 23.20	
  8.491	-168.704	  1.25434	  0.36755	  0.97789	  0.59864	  0.71589	 -0.01544	  1.27459	709.04303	 23.20	
  8.500	180.000	  1.25718	  0.36276	  0.98837	  0.66168	  0.65529	 -0.01555	  1.27679	709.11902	 23.20	
 10.200	180.000	  1.23329	  0.28479	  1.03394	  0.63965	  0.63350	 -0.02517	  1.27298	709.15002	 23.20	
 10.191	-170.497	  1.23180	  0.28851	  1.02554	  0.57669	  0.69453	 -0.02397	  1.27052	709.13202	 23.20	
 10.210	-161.034	  1.23235	  0.29958	  1.01053	  0.51786	  0.75725	 -0.02439	  1.27189	709.16699	 23.20	
 10.194	-151.526	  1.23166	  0.32182	  0.98166	  0.46286	  0.81718	 -0.02376	  1.27280	709.21198	 23.20	
 10.190	-142.105	  1.22877	  0.34820	  0.94392	  0.41316	  0.87187	 -0.02647	  1.27125	709.30103	 23.20	
 10.215	-132.646	  1.23117	  0.38552	  0.90021	  0.37200	  0.92356	 -0.02943	  1.27442	709.21198	 23.20	
 10.203	-123.092	  1.22040	  0.42825	  0.84130	  0.33587	  0.95856	 -0.02905	  1.26538	709.27100	 23.20	
 10.192	-113.678	  1.22601	  0.48115	  0.78701	  0.31142	  0.99649	 -0.03126	  1.27239	709.22803	 23.20	
 10.208	-104.249	  1.22474	  0.53649	  0.72498	  0.29170	  1.02053	 -0.03611	  1.27416	709.20300	 23.20	
 10.210	-94.801	  1.22126	  0.59668	  0.66016	  0.28375	  1.02942	 -0.03844	  1.27131	709.16699	 23.20	
 10.210	-85.199	  1.22430	  0.66226	  0.59669	  0.28377	  1.03248	 -0.04040	  1.27435	709.32098	 23.20	
 10.208	-75.751	  1.22143	  0.72423	  0.53562	  0.29374	  1.01866	 -0.03747	  1.27204	709.23901	 23.20	
 10.192	-66.322	  1.21950	  0.78379	  0.47900	  0.31059	  0.99503	 -0.03853	  1.26850	709.30103	 23.20	
 10.203	-56.908	  1.22025	  0.84343	  0.42846	  0.33804	  0.96412	 -0.03677	  1.26978	709.28198	 23.20	
 10.215	-47.354	  1.22435	  0.90063	  0.38524	  0.37510	  0.92460	 -0.03629	  1.27318	709.26001	 23.20	
 10.190	-37.895	  1.22119	  0.94540	  0.34256	  0.41057	  0.87636	 -0.03522	  1.27043	709.25299	 23.20	
 10.194	-28.474	  1.22196	  0.98358	  0.31796	  0.46389	  0.81956	 -0.03000	  1.26979	709.23102	 23.20	
 10.210	-18.966	  1.22232	  1.01119	  0.29529	  0.51790	  0.75933	 -0.02849	  1.26945	709.30701	 23.20	
 10.191	 -9.503	  1.22637	  1.03170	  0.28401	  0.57922	  0.69790	 -0.02894	  1.27223	709.24597	 23.20	
 10.200	  0.000	  1.22392	  1.03607	  0.27845	  0.63894	  0.63549	 -0.02668	  1.26871	709.18298	 23.20	
 10.191	  9.503	  1.22769	  1.03467	  0.28456	  0.70656	  0.57436	 -0.02582	  1.27229	709.28198	 23.20	
 10.210	 18.966	  1.22793	  1.01878	  0.29778	  0.76872	  0.51729	 -0.02285	  1.27098	709.22803	 23.20	
 10.194	 28.474	  1.23144	  0.99470	  0.32021	  0.83068	  0.46503	 -0.02218	  1.27343	709.27002	 23.20	
 10.190	 37.895	  1.23289	  0.95913	  0.34992	  0.88718	  0.41705	 -0.02149	  1.27416	709.17999	 23.20	
 10.215	 47.354	  1.23417	  0.91510	  0.38808	  0.93831	  0.37612	 -0.02179	  1.27548	709.20599	 23.20	
 10.203	 56.908	  1.23287	  0.86109	  0.43445	  0.97845	  0.34341	 -0.02068	  1.27228	709.12402	 23.20	
 10.192	 66.322	  1.23353	  0.80346	  0.48538	  1.00998	  0.31878	 -0.02229	  1.27272	709.15002	 23.20	
 10.208	 75.751	  1.22950	  0.74145	  0.53776	  1.02830	  0.29979	 -0.02364	  1.26788	709.18402	 23.20	
 10.210	 85.199	  1.23593	  0.68139	  0.60305	  1.04665	  0.29203	 -0.02587	  1.27530	709.20801	 23.20	
 10.210	 94.801	  1.22789	  0.61398	  0.66250	  1.04016	  0.28957	 -0.02601	  1.26802	709.16400	 23.20	
 10.208	104.249	  1.23154	  0.55533	  0.72776	  1.03051	  0.30053	 -0.02539	  1.27066	709.28400	 23.20	
 10.192	113.678	  1.22968	  0.49734	  0.78740	  1.00637	  0.31643	 -0.02705	  1.26828	709.28497	 23.20	
 10.203	123.092	  1.22902	  0.44451	  0.84535	  0.97417	  0.33945	 -0.02774	  1.26861	709.24597	 23.20	
 10.215	132.646	  1.23233	  0.39756	  0.90151	  0.93490	  0.37225	 -0.02904	  1.27277	709.19702	 23.20	
 10.190	142.105	  1.23029	  0.36081	  0.94470	  0.88356	  0.41360	 -0.02425	  1.27009	707.65198	 23.20	
 10.194	151.526	  1.23546	  0.33064	  0.98458	  0.83026	  0.46174	 -0.02531	  1.27496	709.27698	 23.20	
 10.210	161.034	  1.23004	  0.30429	  1.00913	  0.76476	  0.51312	 -0.02338	  1.26914	709.29102	 23.20	
 10.191	170.497	  1.23031	  0.29042	  1.02518	  0.70253	  0.57033	 -0.02403	  1.26925	709.19702	 23.20	
 11.899	171.783	  1.20933	  0.21755	  1.07319	  0.68414	  0.54957	 -0.03437	  1.27196	709.27899	 23.20	
 11.890	163.610	  1.20231	  0.22933	  1.05215	  0.74240	  0.48917	 -0.03297	  1.26386	709.20001	 23.20	
 11.889	155.445	  1.21121	  0.25110	  1.03643	  0.81055	  0.43896	 -0.03191	  1.27445	709.34601	 23.20	
 11.909	147.299	  1.20596	  0.27622	  1.00059	  0.86642	  0.38751	 -0.03391	  1.26951	709.20398	 23.20	
 11.902	139.148	  1.20757	  0.31046	  0.96069	  0.92223	  0.34342	 -0.03549	  1.27102	709.26001	 23.20	
 11.894	130.867	  1.20913	  0.35187	  0.91392	  0.97228	  0.30656	 -0.03757	  1.27410	709.32501	 23.20	
 11.897	122.732	  1.21028	  0.39891	  0.86040	  1.01390	  0.27540	 -0.03729	  1.27362	709.31799	 23.20	
 11.903	114.597	  1.20822	  0.44862	  0.80115	  1.04550	  0.24996	 -0.03684	  1.27216	709.20001	 23.20	
 11.893	106.346	  1.20444	  0.50430	  0.73584	  1.06672	  0.23039	 -0.03675	  1.26818	709.20801	 23.20	
 11.892	 98.155	  1.20784	  0.56572	  0.67385	  1.08346	  0.22098	 -0.03835	  1.27191	709.21100	 23.30	
 11.900	 90.000	  1.21053	  0.62871	  0.61310	  1.09195	  0.21755	 -0.03711	  1.27427	709.24902	 23.20	
 11.892	 81.845	  1.20604	  0.68994	  0.54768	  1.08395	  0.21917	 -0.03526	  1.27049	709.15302	 23.30	
 11.893	 73.654	  1.20628	  0.75177	  0.49103	  1.06771	  0.23366	 -0.03271	  1.27013	709.25098	 23.20	
 11.903	 65.403	  1.21001	  0.81792	  0.43564	  1.04822	  0.25254	 -0.03052	  1.27433	709.21399	 23.30	
 11.897	 57.268	  1.20644	  0.87295	  0.38258	  1.01166	  0.27544	 -0.03193	  1.27097	709.20398	 23.20	
 11.894	 49.133	  1.20884	  0.92744	  0.33958	  0.97359	  0.30941	 -0.02997	  1.27450	709.21997	 23.30	
 11.902	 40.852	  1.20738	  0.97461	  0.29758	  0.92495	  0.34524	 -0.03361	  1.27456	709.34399	 23.30	
 11.909	 32.701	  1.20660	  1.01460	  0.26487	  0.87055	  0.39050	 -0.03133	  1.27329	709.25598	 23.30	
 11.889	 24.555	  1.20690	  1.04672	  0.24093	  0.81211	  0.44275	 -0.03128	  1.27529	709.24298	 23.30	
 11.890	 16.390	  1.20471	  1.06886	  0.22145	  0.74980	  0.49653	 -0.03292	  1.27372	709.18701	 23.30	
 11.899	  8.217	  1.20045	  1.07918	  0.20943	  0.68402	  0.55362	 -0.03428	  1.27089	709.18103	 23.30	
 11.900	  0.000	  1.19959	  1.08239	  0.20581	  0.61930	  0.61560	 -0.03726	  1.27040	709.16901	 23.30	
 11.899	 -8.217	  1.19962	  1.07714	  0.21035	  0.55784	  0.67838	 -0.03566	  1.27167	709.20001	 23.30	
 11.890	-16.390	  1.19701	  1.05900	  0.21872	  0.49592	  0.73922	 -0.03675	  1.27013	709.26001	 23.30	
 11.889	-24.555	  1.19839	  1.03598	  0.23746	  0.44055	  0.80219	 -0.03878	  1.27116	709.18701	 23.30	
 11.909	-32.701	  1.19363	  0.99762	  0.26152	  0.38624	  0.85748	 -0.04282	  1.26804	708.02698	 23.30	
 11.902	-40.852	  1.19860	  0.96120	  0.29643	  0.34525	  0.91287	 -0.04412	  1.27171	709.21997	 23.30	
 11.894	-49.133	  1.19532	  0.90783	  0.33439	  0.30319	  0.95900	 -0.04575	  1.26908	709.24298	 23.30	
 11.897	-57.268	  1.19543	  0.85644	  0.37690	  0.26978	  0.99974	 -0.04841	  1.27063	709.30499	 23.30	
 11.903	-65.403	  1.20002	  0.79951	  0.43106	  0.24440	  1.03733	 -0.04766	  1.27574	709.24298	 23.30	
 11.893	-73.654	  1.19482	  0.73303	  0.48532	  0.22579	  1.05516	 -0.04720	  1.27010	709.21802	 23.30	
 11.892	-81.845	  1.19755	  0.67097	  0.54501	  0.21410	  1.07123	 -0.04806	  1.27279	709.17499	 23.30	
 11.900	-90.000	  1.19120	  0.60374	  0.60509	  0.20892	  1.07023	 -0.04822	  1.26654	709.14899	 23.30	
 11.892	-98.155	  1.19673	  0.54301	  0.67101	  0.21208	  1.06898	 -0.04677	  1.27069	709.10498	 23.30	
 11.893	-106.346	  1.20168	  0.48703	  0.73738	  0.22519	  1.05825	 -0.04329	  1.27530	709.02502	 23.30	
 11.903	-114.597	  1.19515	  0.42648	  0.79500	  0.24068	  1.02760	 -0.04081	  1.26651	709.13800	 23.30	
 11.897	-122.732	  1.20192	  0.38053	  0.85580	  0.26999	  0.99767	 -0.03832	  1.27050	709.20001	 23.30	
 11.894	-130.867	  1.20120	  0.33420	  0.90785	  0.30093	  0.95524	 -0.03697	  1.26830	709.23401	 23.30	
 11.902	-139.148	  1.20120	  0.29502	  0.95586	  0.33908	  0.90713	 -0.03662	  1.26782	709.08698	 23.30	
 11.909	-147.299	  1.20791	  0.26478	  1.00199	  0.38765	  0.85696	 -0.03426	  1.27215	708.59302	 23.30	
 11.889	-155.445	  1.20521	  0.24205	  1.02917	  0.43731	  0.79727	 -0.03495	  1.26817	709.22601	 23.30	
 11.890	-163.610	  1.20891	  0.22554	  1.05611	  0.49697	  0.73634	 -0.03304	  1.27002	709.08502	 23.30	
 11.899	-171.783	  1.20843	  0.21530	  1.07250	  0.55579	  0.67448	 -0.03267	  1.27062	709.06299	 23.30	
 11.900	180.000	  1.20875	  0.21051	  1.07681	  0.61601	  0.61189	 -0.03459	  1.27112	709.07703	 23.30	
 13.600	180.000	  1.17999	  0.13926	  1.11631	  0.59350	  0.58738	 -0.04426	  1.26996	709.06201	 23.30	
 13.608	-172.853	  1.18215	  0.14215	  1.11376	  0.53366	  0.65018	 -0.04405	  1.27274	709.17999	 23.30	
 13.611	-165.583	  1.18593	  0.15028	  1.10505	  0.47403	  0.71533	 -0.04287	  1.27750	709.22198	 23.30	
 13.601	-158.353	  1.18168	  0.16334	  1.07973	  0.41380	  0.77559	 -0.04341	  1.27252	709.21100	 23.30	
 13.609	-151.210	  1.17886	  0.18426	  1.04936	  0.36102	  0.83386	 -0.04345	  1.27044	709.16602	 23.30	
 13.611	-143.999	  1.17719	  0.21033	  1.01257	  0.31323	  0.88924	 -0.04541	  1.27106	709.18298	 23.30	
 13.601	-136.825	  1.18107	  0.24558	  0.97306	  0.27111	  0.94629	 -0.04494	  1.27665	709.18402	 23.30	
 13.596	-129.640	  1.17548	  0.28333	  0.92038	  0.23261	  0.98980	 -0.04712	  1.27361	709.16901	 23.30	
 13.611	-122.431	  1.16954	  0.32602	  0.86155	  0.19980	  1.02669	 -0.04810	  1.26891	709.11902	 23.30	
 13.604	-115.211	  1.16878	  0.37682	  0.80315	  0.17607	  1.05972	 -0.04983	  1.26919	709.20300	 23.30	
 13.595	-108.042	  1.16923	  0.43091	  0.74341	  0.15605	  1.08691	 -0.05194	  1.27090	709.18402	 23.30	
 13.607	-100.793	  1.17146	  0.49107	  0.68199	  0.14371	  1.10828	 -0.05304	  1.27520	709.12500	 23.30	
 13.601	-93.617	  1.16745	  0.55051	  0.61506	  0.13640	  1.11410	 -0.05590	  1.27284	709.27100	 23.30	
 13.601	-86.383	  1.16730	  0.61262	  0.55319	  0.13571	  1.11491	 -0.05449	  1.27239	709.20398	 23.30	
 13.607	-79.207	  1.16950	  0.67964	  0.49258	  0.14454	  1.10921	 -0.05333	  1.27490	709.17999	 23.30	
 13.595	-71.958	  1.16400	  0.73909	  0.43229	  0.15692	  1.08668	 -0.05429	  1.26928	709.18903	 23.30	
 13.604	-64.789	  1.17066	  0.80605	  0.37958	  0.17768	  1.06834	 -0.05267	  1.27612	709.35303	 23.30	
 13.611	-57.569	  1.16718	  0.86424	  0.32557	  0.19896	  1.03505	 -0.05376	  1.27294	709.12097	 23.30	
 13.596	-50.360	  1.16793	  0.91763	  0.28389	  0.23411	  0.99340	 -0.05362	  1.27185	709.01501	 23.30	
 13.601	-43.175	  1.17019	  0.97100	  0.24457	  0.27282	  0.94853	 -0.05060	  1.27392	709.08698	 23.30	
 13.611	-36.001	  1.16835	  1.01367	  0.21058	  0.31529	  0.89507	 -0.04785	  1.27204	709.14203	 23.30	
 13.609	-28.790	  1.16406	  1.04832	  0.18076	  0.36147	  0.83639	 -0.04525	  1.26754	709.15302	 23.30	
 13.601	-21.647	  1.16714	  1.07982	  0.16082	  0.41526	  0.77936	 -0.04485	  1.26946	709.15601	 23.30	
 13.611	-14.417	  1.17346	  1.10877	  0.14432	  0.47408	  0.72080	 -0.04429	  1.27660	709.08502	 23.30	
 13.608	 -7.147	  1.17110	  1.11816	  0.13765	  0.53546	  0.65562	 -0.04244	  1.27258	709.05103	 23.30	
 13.600	  0.000	  1.17119	  1.12432	  0.13422	  0.59647	  0.59318	 -0.04303	  1.27280	709.00098	 23.30	
 13.608	  7.147	  1.17103	  1.12050	  0.13783	  0.66037	  0.53151	 -0.04117	  1.27107	709.12701	 23.30	
 13.611	 14.417	  1.17036	  1.10761	  0.14739	  0.72345	  0.47210	 -0.04118	  1.27021	709.10999	 23.30	
 13.601	 21.647	  1.17248	  1.08917	  0.16250	  0.78663	  0.41632	 -0.04096	  1.27056	709.18298	 23.30	
 13.609	 28.790	  1.17191	  1.05993	  0.18456	  0.84611	  0.36442	 -0.03888	  1.26911	709.15002	 23.30	
 13.611	 36.001	  1.17613	  1.02719	  0.21489	  0.90520	  0.32000	 -0.03856	  1.27250	709.18298	 23.30	
 13.601	 43.175	  1.17547	  0.98303	  0.24974	  0.95693	  0.27723	 -0.03963	  1.27094	709.26703	 23.30	
 13.596	 50.360	  1.17804	  0.93643	  0.28778	  1.00549	  0.24031	 -0.04146	  1.27336	709.05402	 23.30	
 13.611	 57.569	  1.17774	  0.88235	  0.33175	  1.04642	  0.20750	 -0.04103	  1.27270	709.20599	 23.30	
 13.604	 64.789	  1.17689	  0.82236	  0.38252	  1.07850	  0.18212	 -0.04099	  1.27115	709.22601	 23.30	
 13.595	 71.958	  1.17799	  0.76285	  0.43715	  1.10364	  0.16517	 -0.04098	  1.27194	709.06598	 23.30	
 13.607	 79.207	  1.17910	  0.70024	  0.49533	  1.12130	  0.15207	 -0.04472	  1.27253	709.16901	 23.30	
 13.601	 86.383	  1.17652	  0.63653	  0.55500	  1.12639	  0.14613	 -0.04567	  1.26914	709.27399	 23.30	
 13.601	 93.617	  1.17757	  0.57224	  0.61819	  1.12793	  0.14517	 -0.04789	  1.27164	709.22900	 23.40	
 13.607	100.793	  1.17546	  0.51199	  0.68074	  1.11778	  0.15194	 -0.04589	  1.26811	709.19702	 23.30	
 13.595	108.042	  1.17760	  0.45498	  0.74503	  1.10203	  0.16512	 -0.04657	  1.27050	709.17499	 23.30	
 13.604	115.211	  1.18203	  0.39997	  0.81018	  1.08231	  0.18243	 -0.04656	  1.27622	709.17499	 23.30	
 13.611	122.431	  1.17764	  0.34643	  0.86573	  1.04404	  0.20521	 -0.04841	  1.27102	709.21802	 23.30	
 13.596	129.640	  1.17577	  0.30011	  0.91876	  1.00112	  0.23608	 -0.04654	  1.26832	709.17499	 23.30	
 13.601	136.825	  1.18048	  0.26048	  0.97169	  0.95662	  0.27385	 -0.04682	  1.27221	709.25598	 23.40	
 13.611	143.999	  1.18133	  0.22446	  1.01533	  0.90449	  0.31502	 -0.04378	  1.27367	709.11603	 23.30	
 13.609	151.210	  1.17973	  0.19547	  1.05127	  0.84710	  0.36028	 -0.04404	  1.27154	709.13800	 23.40	
 13.601	158.353	  1.18182	  0.17356	  1.08049	  0.78724	  0.41331	 -0.04287	  1.27248	709.27899	 23.40	
 13.611	165.583	  1.17713	  0.15465	  1.09825	  0.72095	  0.46655	 -0.04276	  1.26812	709.29901	 23.30	
 13.608	172.853	  1.17966	  0.14333	  1.11309	  0.65829	  0.52564	 -0.04335	  1.27048	709.20599	 23.40	
 15.298	173.587	  1.14584	  0.07471	  1.14779	  0.63137	  0.50064	 -0.05205	  1.26869	709.15002	 23.40	
 15.291	167.167	  1.14982	  0.08564	  1.14022	  0.69645	  0.44579	 -0.05207	  1.27218	709.10199	 23.40	
 15.307	160.676	  1.14757	  0.09735	  1.12080	  0.75940	  0.38708	 -0.05300	  1.27140	709.10400	 23.40	
 15.300	154.261	  1.14655	  0.11570	  1.09422	  0.82136	  0.33214	 -0.05280	  1.27125	709.16901	 23.40	
 15.288	147.854	  1.14516	  0.14480	  1.05962	  0.87814	  0.28728	 -0.05300	  1.26879	709.20001	 23.40	
 15.293	141.428	  1.14926	  0.17489	  1.02375	  0.93692	  0.24363	 -0.05487	  1.27405	709.26202	 23.30	
 15.299	134.985	  1.14979	  0.21202	  0.97891	  0.98887	  0.20561	 -0.05366	  1.27457	709.30701	 23.40	
 15.305	128.583	  1.14638	  0.25396	  0.92587	  1.03306	  0.17176	 -0.05823	  1.27156	709.22302	 23.40	
 15.309	122.142	  1.14537	  0.29790	  0.87054	  1.07247	  0.14113	 -0.05584	  1.27156	709.20599	 23.40	
 15.304	115.711	  1.15056	  0.34934	  0.81532	  1.10990	  0.11859	 -0.05603	  1.27674	709.24298	 23.30	
 15.297	109.291	  1.15077	  0.40351	  0.75390	  1.13613	  0.10016	 -0.05375	  1.27696	709.34399	 23.30	
 15.293	102.897	  1.14508	  0.46023	  0.68807	  1.15008	  0.08752	 -0.05497	  1.27077	709.34399	 23.30	
 15.293	 96.458	  1.14390	  0.51919	  0.62409	  1.16033	  0.07960	 -0.05392	  1.27043	709.14203	 23.40	
 15.300	 90.000	  1.14735	  0.58244	  0.56336	  1.16624	  0.07822	 -0.05663	  1.27292	709.16901	 23.40	
 15.293	 83.542	  1.14301	  0.64349	  0.49999	  1.15903	  0.08162	 -0.05328	  1.26927	709.17297	 23.40	
 15.293	 77.103	  1.14546	  0.70781	  0.44182	  1.14929	  0.09036	 -0.05284	  1.27147	709.11603	 23.30	
 15.297	 70.709	  1.14427	  0.76834	  0.38608	  1.13032	  0.10378	 -0.05101	  1.27063	709.14099	 23.30	
 15.304	 64.289	  1.14338	  0.82797	  0.33448	  1.10435	  0.12234	 -0.05019	  1.27034	709.16101	 23.40	
 15.309	 57.858	  1.14289	  0.88579	  0.28436	  1.07208	  0.14483	 -0.04946	  1.27066	709.05402	 23.30	
 15.305	 51.417	  1.14131	  0.93877	  0.24012	  1.03074	  0.17604	 -0.04876	  1.27019	709.13800	 23.30	
 15.299	 45.015	  1.14298	  0.99042	  0.20040	  0.98723	  0.21045	 -0.04714	  1.27173	709.12799	 23.30	
 15.293	 38.572	  1.14066	  1.03278	  0.16623	  0.93504	  0.24927	 -0.04700	  1.26937	709.11102	 23.30	
 15.288	 32.146	  1.14067	  1.07155	  0.13569	  0.88070	  0.29264	 -0.04449	  1.27126	709.02802	 23.30	
 15.300	 25.739	  1.13680	  1.10135	  0.11045	  0.82137	  0.33922	 -0.04301	  1.26838	709.14600	 23.30	
 15.307	 19.324	  1.13912	  1.12943	  0.09192	  0.76191	  0.39353	 -0.04496	  1.27179	709.12097	 23.30	
 15.291	 12.833	  1.13637	  1.14265	  0.07867	  0.69683	  0.44892	 -0.04773	  1.26807	709.11603	 23.30	
 15.298	  6.413	  1.13777	  1.15695	  0.06760	  0.63462	  0.50706	 -0.04625	  1.27216	709.13300	 23.40	
 15.300	  0.000	  1.12869	  1.15088	  0.06521	  0.56795	  0.56465	 -0.04583	  1.26322	709.17999	 23.30	
 15.298	 -6.413	  1.13351	  1.15018	  0.06887	  0.50859	  0.62885	 -0.04737	  1.26822	709.12500	 23.40	
 15.291	-12.833	  1.13374	  1.13951	  0.07451	  0.44853	  0.69013	 -0.04803	  1.26909	709.22900	 23.30	
 15.307	-19.324	  1.13667	  1.12504	  0.08659	  0.39022	  0.75750	 -0.04778	  1.27517	709.27698	 23.40	
 15.300	-25.739	  1.13336	  1.09222	  0.10722	  0.33836	  0.81356	 -0.05067	  1.26966	709.28998	 23.40	
 15.288	-32.146	  1.13594	  1.06098	  0.13083	  0.28852	  0.87286	 -0.05421	  1.27358	709.28198	 23.30	
 15.293	-38.572	  1.13007	  1.01572	  0.15917	  0.24195	  0.92311	 -0.05520	  1.26798	709.16101	 23.40	
 15.299	-45.015	  1.13306	  0.97206	  0.19318	  0.20036	  0.97674	 -0.05597	  1.27152	709.21802	 23.30	
 15.305	-51.417	  1.13266	  0.92185	  0.23382	  0.16684	  1.02095	 -0.05601	  1.27137	709.27100	 23.30	
 15.309	-57.858	  1.13523	  0.86793	  0.27827	  0.13661	  1.06191	 -0.05733	  1.27326	709.34698	 23.40	
 15.304	-64.289	  1.13251	  0.80620	  0.32806	  0.11272	  1.09219	 -0.05727	  1.27128	709.14899	 23.30	
 15.297	-70.709	  1.13116	  0.74406	  0.37992	  0.09175	  1.11669	 -0.05489	  1.27076	709.17499	 23.30	
 15.293	-77.103	  1.13464	  0.68178	  0.43832	  0.07754	  1.13867	 -0.05555	  1.27371	709.15302	 23.40	
 15.293	-83.542	  1.13040	  0.61695	  0.49601	  0.06881	  1.14497	 -0.05820	  1.26900	709.19800	 23.40	
 15.300	-90.000	  1.13482	  0.55650	  0.56060	  0.06743	  1.15217	 -0.05815	  1.27294	709.28400	 23.30	
 15.293	-96.458	  1.13384	  0.49339	  0.62182	  0.06806	  1.14640	 -0.05823	  1.27150	709.15002	 23.30	
 15.293	-102.897	  1.13467	  0.43476	  0.68523	  0.07745	  1.13436	 -0.05923	  1.27130	709.33002	 23.40	
 15.297	-109.291	  1.13742	  0.37971	  0.74892	  0.09202	  1.11627	 -0.05759	  1.27230	709.24500	 23.30	
 15.304	-115.711	  1.13883	  0.32589	  0.81034	  0.11056	  1.09050	 -0.05950	  1.27260	709.25598	 23.30	
 15.309	-122.142	  1.13982	  0.27565	  0.86886	  0.13339	  1.05764	 -0.05705	  1.27289	709.26001	 23.30	
 15.305	-128.583	  1.14010	  0.23564	  0.92260	  0.16829	  1.01490	 -0.05576	  1.26886	709.24597	 23.40	
 15.299	-134.985	  1.14227	  0.19468	  0.97312	  0.20053	  0.97123	 -0.05370	  1.27047	709.22601	 23.40	
 15.293	-141.428	  1.14678	  0.16068	  1.02055	  0.24050	  0.92354	 -0.05499	  1.27347	709.25403	 23.40	
 15.288	-147.854	  1.14587	  0.13446	  1.05905	  0.28946	  0.86509	 -0.05106	  1.27026	709.13501	 23.40	
 15.300	-154.261	  1.14487	  0.10676	  1.09074	  0.33546	  0.80661	 -0.05257	  1.26799	709.15601	 23.40	
 15.307	-160.676	  1.14649	  0.09132	  1.11709	  0.38941	  0.74805	 -0.05222	  1.26872	709.21100	 23.40	
 15.291	-167.167	  1.15027	  0.07959	  1.13959	  0.44897	  0.68676	 -0.05219	  1.27281	709.20599	 23.40	
 15.298	-173.587	  1.14815	  0.07064	  1.14896	  0.50696	  0.62248	 -0.05349	  1.27010	709.04797	 23.40	
 15.300	180.000	  1.14957	  0.07041	  1.15444	  0.56949	  0.56319	 -0.05283	  1.27159	709.27399	 23.40	
 17.000	180.000	  1.11788	  0.01796	  1.18737	  0.54916	  0.54423	 -0.05783	  1.27409	709.26801	 23.40	
 16.990	-174.179	  1.11921	  0.02077	  1.18450	  0.49014	  0.60502	 -0.05848	  1.27601	709.33301	 23.40	
 17.009	-168.383	  1.11725	  0.02601	  1.17305	  0.43133	  0.66440	 -0.05767	  1.27391	709.33801	 23.40	
 17.000	-162.596	  1.12162	  0.03451	  1.16157	  0.37537	  0.72815	 -0.05748	  1.27922	709.24500	 23.40	
 16.990	-156.759	  1.11283	  0.05186	  1.12944	  0.32130	  0.78314	 -0.05663	  1.26974	709.18298	 23.40	
 16.995	-150.919	  1.11143	  0.07197	  1.09934	  0.27218	  0.84077	 -0.05909	  1.26963	709.11603	 23.40	
 16.988	-145.161	  1.11062	  0.09047	  1.06440	  0.22147	  0.89633	 -0.05917	  1.27090	709.25598	 23.40	
 17.014	-139.343	  1.10862	  0.12479	  1.02244	  0.18372	  0.94896	 -0.05886	  1.26977	709.15302	 23.40	
 17.007	-133.546	  1.10947	  0.16109	  0.97803	  0.15008	  0.99785	 -0.05830	  1.27166	709.23401	 23.40	
 17.001	-127.699	  1.10846	  0.19351	  0.92822	  0.11096	  1.04360	 -0.06133	  1.27458	709.14099	 23.40	
 17.006	-121.937	  1.10053	  0.23786	  0.86866	  0.08512	  1.07573	 -0.06028	  1.26734	709.18103	 23.40	
 17.002	-116.134	  1.10216	  0.28583	  0.81397	  0.06306	  1.11120	 -0.05994	  1.27027	709.20398	 23.40	
 17.001	-110.310	  1.09918	  0.33301	  0.75304	  0.03919	  1.13825	 -0.06225	  1.27015	709.10199	 23.40	
 16.988	-104.517	  1.09931	  0.39059	  0.69296	  0.03164	  1.15576	 -0.05992	  1.26915	709.26202	 23.40	
 17.008	-98.662	  1.10013	  0.44678	  0.63136	  0.01957	  1.17370	 -0.05789	  1.27282	709.27002	 23.40	
 16.996	-92.909	  1.09670	  0.50128	  0.56849	  0.01177	  1.17755	 -0.05825	  1.27045	709.23602	 23.40	
 16.996	-87.091	  1.09646	  0.56490	  0.50850	  0.01506	  1.17775	 -0.05549	  1.27071	709.16901	 23.40	
 17.012	-81.253	  1.09602	  0.62640	  0.45121	  0.02210	  1.17199	 -0.05377	  1.26978	709.16699	 23.40	
 16.988	-75.483	  1.09737	  0.68845	  0.39499	  0.03191	  1.16011	 -0.05247	  1.27144	709.23901	 23.40	
 17.001	-69.690	  1.09483	  0.74710	  0.33587	  0.03963	  1.14061	 -0.05160	  1.26931	709.15997	 23.40	
 17.002	-63.866	  1.09800	  0.81050	  0.28972	  0.06435	  1.11605	 -0.05295	  1.27160	709.29303	 23.40	
 17.006	-58.063	  1.09890	  0.86860	  0.23992	  0.08489	  1.08514	 -0.05456	  1.27304	709.19202	 23.40	
 17.001	-52.301	  1.10029	  0.92460	  0.19792	  0.11355	  1.04852	 -0.05483	  1.27439	709.15601	 23.40	
 17.007	-46.454	  1.10291	  0.97868	  0.15720	  0.14598	  1.00704	 -0.05470	  1.27710	709.12701	 23.40	
 17.014	-40.657	  1.09817	  1.02205	  0.12328	  0.18351	  0.95625	 -0.05263	  1.27221	709.28699	 23.40	
 16.988	-34.839	  1.09967	  1.06492	  0.09497	  0.22768	  0.90348	 -0.05068	  1.27192	709.14203	 23.40	
 16.995	-29.081	  1.10073	  1.10250	  0.06986	  0.27370	  0.84992	 -0.04918	  1.27221	709.04303	 23.40	
 16.990	-23.241	  1.10112	  1.13301	  0.05235	  0.32642	  0.79118	 -0.04739	  1.27343	709.16699	 23.40	
 17.000	-17.404	  1.10121	  1.15674	  0.03629	  0.37842	  0.73179	 -0.04856	  1.27313	709.07397	 23.40	
 17.009	-11.617	  1.10120	  1.17614	  0.01895	  0.43127	  0.67006	 -0.04555	  1.27407	709.08698	 23.40	
 16.990	 -5.821	  1.10596	  1.18946	  0.01785	  0.49414	  0.61212	 -0.04399	  1.27609	709.22601	 23.40	
 17.000	  0.000	  1.10058	  1.18849	  0.01403	  0.55068	  0.54877	 -0.04495	  1.27057	709.14203	 23.40	
 16.990	  5.821	  1.10200	  1.18640	  0.01608	  0.61241	  0.48945	 -0.04668	  1.27109	709.20398	 23.40	
 17.009	 11.617	  1.10189	  1.17832	  0.02552	  0.67570	  0.43323	 -0.04316	  1.27163	709.11102	 23.40	
 17.000	 17.404	  1.10236	  1.16230	  0.03293	  0.73468	  0.37645	 -0.04592	  1.27164	709.13300	 23.40	
 16.990	 23.241	  1.10269	  1.13958	  0.05500	  0.79697	  0.32682	 -0.04317	  1.26965	709.18903	 23.40	
 16.995	 29.081	  1.10483	  1.11197	  0.07627	  0.85630	  0.27915	 -0.04483	  1.27065	709.11102	 23.40	
 16.988	 34.839	  1.10734	  1.07907	  0.10234	  0.91231	  0.23633	 -0.04700	  1.27182	709.16901	 23.40	
 17.014	 40.657	  1.10454	  1.03711	  0.13166	  0.96367	  0.19372	 -0.04893	  1.26926	709.08801	 23.40	
 17.007	 46.454	  1.10955	  0.99577	  0.16494	  1.01572	  0.15612	 -0.05244	  1.27430	709.04901	 23.40	
 17.001	 52.301	  1.10387	  0.93966	  0.20332	  1.05457	  0.12275	 -0.05289	  1.26675	709.04797	 23.40	
 17.006	 58.063	  1.10494	  0.88776	  0.24561	  1.09253	  0.09667	 -0.05185	  1.26748	709.16699	 23.40	
 17.002	 63.866	  1.10976	  0.83536	  0.29184	  1.13099	  0.07224	 -0.05236	  1.27390	709.03497	 23.40	
 17.001	 69.690	  1.10711	  0.77379	  0.34348	  1.15411	  0.05392	 -0.05477	  1.26993	709.15997	 23.40	
 16.988	 75.483	  1.11172	  0.71706	  0.39871	  1.17756	  0.04256	 -0.05433	  1.27422	709.20398	 23.40	
 17.012	 81.253	  1.11134	  0.65616	  0.45284	  1.19158	  0.03123	 -0.05670	  1.27486	709.23401	 23.40	
 16.996	 87.091	  1.11151	  0.59429	  0.51291	  1.19720	  0.02683	 -0.05661	  1.27380	709.15198	 23.40	
 16.996	 92.909	  1.11303	  0.53492	  0.57399	  1.19750	  0.02810	 -0.05622	  1.27430	709.12097	 23.40	
 17.008	 98.662	  1.10984	  0.47194	  0.63234	  1.19018	  0.02610	 -0.05661	  1.27304	709.11902	 23.40	
 16.988	104.517	  1.10969	  0.41555	  0.69494	  1.17375	  0.03972	 -0.05529	  1.27047	709.21997	 23.40	
 17.001	110.310	  1.11153	  0.36215	  0.75608	  1.15623	  0.05355	 -0.05701	  1.27338	709.12500	 23.40	
 17.002	116.134	  1.11301	  0.30783	  0.81711	  1.13087	  0.06813	 -0.05828	  1.27520	709.19702	 23.40	
 17.006	121.937	  1.11109	  0.26191	  0.87338	  1.09524	  0.09476	 -0.05794	  1.27117	709.12701	 23.40	
 17.001	127.699	  1.10973	  0.21437	  0.92684	  1.05625	  0.11696	 -0.05959	  1.27009	709.16699	 23.40	
 17.007	133.546	  1.10773	  0.17230	  0.97605	  1.00963	  0.14781	 -0.06107	  1.26857	709.11798	 23.40	
 17.014	139.343	  1.11570	  0.13867	  1.02921	  0.96647	  0.18657	 -0.06219	  1.27538	709.19098	 23.40	
 16.988	145.161	  1.11752	  0.11247	  1.07050	  0.91413	  0.23131	 -0.05739	  1.27538	709.18402	 23.40	
 16.995	150.919	  1.11619	  0.08318	  1.10472	  0.85694	  0.27294	 -0.05717	  1.27467	709.19702	 23.40	
 16.990	156.759	  1.11350	  0.06024	  1.13052	  0.79558	  0.31950	 -0.05742	  1.27066	709.13501	 23.40	
 17.000	162.596	  1.11202	  0.03635	  1.15414	  0.73215	  0.36738	 -0.05887	  1.26998	709.07703	 23.40	
 17.009	168.383	  1.11502	  0.03169	  1.17180	  0.67322	  0.42758	 -0.05732	  1.27126	709.04901	 23.40	
 16.990	174.179	  1.11578	  0.01660	  1.18288	  0.60949	  0.48122	 -0.05810	  1.27300	708.20099	 23.40	
 18.709	174.675	  1.07387	 -0.05199	  1.20971	  0.57723	  0.45002	 -0.05674	  1.27072	709.14899	 23.40	
 18.703	169.441	  1.07409	 -0.04579	  1.20152	  0.63781	  0.39522	 -0.05815	  1.27231	709.11603	 23.40	
 18.691	164.085	  1.07092	 -0.03157	  1.18226	  0.69846	  0.34034	 -0.05639	  1.26790	709.16602	 23.40	
 18.706	158.818	  1.06949	 -0.01755	  1.16162	  0.76046	  0.28709	 -0.05658	  1.26763	709.11902	 23.40	
 18.695	153.537	  1.07150	  0.00219	  1.13728	  0.81994	  0.24080	 -0.05790	  1.27076	709.01202	 23.40	
 18.704	148.255	  1.07054	  0.02459	  1.10468	  0.87796	  0.19305	 -0.05520	  1.26996	708.98297	 23.40	
 18.698	142.952	  1.07032	  0.05332	  1.06655	  0.93463	  0.15079	 -0.05769	  1.27120	708.99799	 23.40	
 18.699	137.625	  1.07107	  0.08472	  1.02453	  0.98791	  0.11235	 -0.05829	  1.27181	709.12500	 23.40	
 18.705	132.343	  1.07577	  0.12210	  0.98123	  1.03979	  0.07983	 -0.06045	  1.27856	709.01801	 23.40	
 18.713	127.067	  1.07023	  0.16059	  0.92455	  1.07884	  0.04709	 -0.05687	  1.27297	709.06201	 23.40	
 18.700	121.794	  1.06850	  0.20383	  0.86901	  1.11525	  0.02207	 -0.05950	  1.27138	709.00299	 23.40	
 18.698	116.504	  1.06734	  0.25064	  0.81183	  1.14746	 -0.00023	 -0.05333	  1.27150	709.10199	 23.40	
 18.707	111.165	  1.06685	  0.29916	  0.75107	  1.17432	 -0.02031	 -0.05628	  1.27148	709.14203	 23.40	
 18.690	105.863	  1.06871	  0.35424	  0.69179	  1.19701	 -0.03274	 -0.05410	  1.27245	709.23901	 23.40	
 18.696	100.583	  1.06429	  0.40978	  0.62759	  1.20787	 -0.04269	 -0.05329	  1.26890	709.09399	 23.40	
 18.700	 95.309	  1.06415	  0.46590	  0.56605	  1.21656	 -0.05000	 -0.05424	  1.26784	709.26001	 23.40	
 18.700	 90.000	  1.06465	  0.52775	  0.50631	  1.21950	 -0.04906	 -0.05622	  1.26835	709.04797	 23.40	
 18.700	 84.691	  1.06409	  0.58743	  0.44668	  1.21708	 -0.04879	 -0.05368	  1.26870	709.17200	 23.40	
 18.696	 79.417	  1.06208	  0.64742	  0.38897	  1.20605	 -0.04155	 -0.05629	  1.26665	709.12500	 23.40	
 18.690	 74.137	  1.06527	  0.71060	  0.33501	  1.19458	 -0.03095	 -0.05770	  1.26993	709.18103	 23.40	
 18.707	 68.835	  1.06460	  0.77064	  0.28269	  1.17533	 -0.01749	 -0.05209	  1.27211	709.22900	 23.40	
 18.698	 63.496	  1.06366	  0.82933	  0.23316	  1.14755	  0.00152	 -0.05368	  1.26969	709.18103	 23.40	
 18.700	 58.206	  1.06180	  0.88545	  0.18561	  1.11382	  0.02256	 -0.05021	  1.26934	709.10400	 23.40	
 18.713	 52.933	  1.06037	  0.93902	  0.14168	  1.07558	  0.05064	 -0.05015	  1.26847	709.22601	 23.40	
 18.705	 47.657	  1.06354	  0.99188	  0.10405	  1.03492	  0.08203	 -0.05006	  1.27203	709.24200	 23.40	
 18.699	 42.375	  1.06433	  1.03908	  0.06889	  0.98932	  0.11495	 -0.05019	  1.27389	709.20801	 23.40	
 18.698	 37.048	  1.05844	  1.07645	  0.03784	  0.93225	  0.15437	 -0.04817	  1.26800	709.15997	 23.40	
 18.704	 31.745	  1.06058	  1.11678	  0.01200	  0.87933	  0.19759	 -0.04173	  1.27058	709.18402	 23.40	
 18.695	 26.463	  1.05957	  1.14806	 -0.01114	  0.82151	  0.24365	 -0.04022	  1.27132	709.11603	 23.40	
 18.706	 21.182	  1.06161	  1.17655	 -0.02952	  0.76503	  0.29275	 -0.04097	  1.27532	709.10797	 23.40	
 18.691	 15.915	  1.05891	  1.19289	 -0.04353	  0.70098	  0.34581	 -0.04179	  1.27180	709.17297	 23.40	
 18.703	 10.559	  1.05401	  1.20269	 -0.05490	  0.63695	  0.39806	 -0.04060	  1.26765	709.18903	 23.40	
 18.709	  5.325	  1.05667	  1.21334	 -0.05995	  0.57879	  0.45608	 -0.04027	  1.26946	709.07098	 23.40	
 18.700	  0.000	  1.05658	  1.21575	 -0.06441	  0.51541	  0.51537	 -0.04168	  1.27138	709.15198	 23.40	
 18.709	 -5.325	  1.05002	  1.20597	 -0.06581	  0.45166	  0.57130	 -0.04306	  1.26532	709.07300	 23.40	
 18.703	-10.559	  1.05339	  1.19870	 -0.05542	  0.39834	  0.63381	 -0.04292	  1.26705	709.27698	 23.40	
 18.691	-15.915	  1.05456	  1.18410	 -0.04552	  0.34178	  0.69684	 -0.04585	  1.26905	709.22302	 23.40	
 18.706	-21.182	  1.05715	  1.16576	 -0.02996	  0.29083	  0.75876	 -0.04373	  1.27172	709.11603	 23.40	
 18.695	-26.463	  1.05723	  1.13775	 -0.01241	  0.24067	  0.81682	 -0.04703	  1.27186	709.08502	 23.40	
 18.704	-31.745	  1.05856	  1.10509	  0.01173	  0.19467	  0.87570	 -0.05155	  1.27354	709.22198	 23.40	
 18.698	-37.048	  1.05658	  1.06454	  0.03816	  0.15059	  0.92899	 -0.04960	  1.27209	709.15802	 23.40	
 18.699	-42.375	  1.05748	  1.02137	  0.06884	  0.11256	  0.97925	 -0.05277	  1.27317	709.09003	 23.40	
 18.705	-47.657	  1.06035	  0.97656	  0.10222	  0.07544	  1.03023	 -0.05212	  1.27703	709.17297	 23.40	
 18.713	-52.933	  1.05665	  0.92170	  0.14031	  0.04375	  1.06959	 -0.05193	  1.27311	709.16101	 23.50	
 18.700	-58.206	  1.05803	  0.86663	  0.18395	  0.01717	  1.10798	 -0.05118	  1.27466	709.19702	 23.50	
 18.698	-63.496	  1.05850	  0.80860	  0.23081	 -0.00541	  1.13983	 -0.05026	  1.27432	709.17499	 23.50	
 18.707	-68.835	  1.05816	  0.74839	  0.28088	 -0.02402	  1.16653	 -0.04839	  1.27439	709.23700	 23.50	
 18.690	-74.137	  1.05639	  0.68548	  0.33440	 -0.03771	  1.18375	 -0.04839	  1.27197	709.17700	 23.50	
 18.696	-79.417	  1.05438	  0.62349	  0.38785	 -0.04935	  1.19669	 -0.04834	  1.27072	709.21198	 23.50	
 18.700	-84.691	  1.05678	  0.56281	  0.44678	 -0.05739	  1.20883	 -0.04889	  1.27388	709.09698	 23.50	
 18.700	-90.000	  1.05746	  0.50175	  0.50748	 -0.05927	  1.21163	 -0.05115	  1.27443	709.19202	 23.50	
 18.700	-95.309	  1.05856	  0.44269	  0.56910	 -0.05667	  1.20885	 -0.05569	  1.27479	709.12701	 23.50	
 18.696	-100.583	  1.05569	  0.38364	  0.62786	 -0.05051	  1.19511	 -0.05680	  1.26954	709.07098	 23.50	
 18.690	-105.863	  1.05838	  0.32928	  0.69096	 -0.03999	  1.18155	 -0.05733	  1.27141	709.07300	 23.50	
 18.707	-111.165	  1.05959	  0.27642	  0.75158	 -0.02622	  1.16103	 -0.05908	  1.27301	709.07098	 23.50	
 18.698	-116.504	  1.05813	  0.22703	  0.80904	 -0.00720	  1.13114	 -0.05622	  1.26798	709.10498	 23.50	
 18.700	-121.794	  1.06115	  0.18046	  0.86778	  0.01352	  1.10081	 -0.05827	  1.27027	709.08801	 23.50	
 18.713	-127.067	  1.06532	  0.13930	  0.92468	  0.04173	  1.06530	 -0.05870	  1.27254	709.21802	 23.50	
 18.705	-132.343	  1.06571	  0.10089	  0.97414	  0.07323	  1.02044	 -0.05730	  1.27164	709.14398	 23.50	
 18.699	-137.625	  1.07085	  0.06869	  1.02500	  0.11034	  0.97621	 -0.05766	  1.27466	709.14600	 23.50	
 18.698	-142.952	  1.06747	  0.03860	  1.06325	  0.14909	  0.92014	 -0.05722	  1.26836	709.18298	 23.50	
 18.704	-148.255	  1.07129	  0.01277	  1.10417	  0.19249	  0.86820	 -0.05592	  1.27206	709.14899	 23.50	
 18.695	-153.537	  1.07854	 -0.00859	  1.14296	  0.24138	  0.81529	 -0.05610	  1.27828	709.23602	 23.50	
 18.706	-158.818	  1.07619	 -0.02659	  1.16738	  0.29079	  0.75425	 -0.05520	  1.27478	709.11798	 23.60	
 18.691	-164.085	  1.07828	 -0.03924	  1.18909	  0.34380	  0.69559	 -0.05434	  1.27677	709.06201	 23.60	
 18.703	-169.441	  1.07617	 -0.04817	  1.20142	  0.39977	  0.63231	 -0.05405	  1.27317	709.08801	 23.60	
 18.709	-174.675	  1.07337	 -0.05200	  1.20761	  0.45652	  0.57158	 -0.05345	  1.27011	709.16699	 23.60	
 18.700	180.000	  1.07471	 -0.05262	  1.21199	  0.51682	  0.51286	 -0.05311	  1.27180	709.16400	 23.60	
 20.400	180.000	  1.02738	 -0.13393	  1.23486	  0.47692	  0.47305	 -0.05065	  1.27252	709.06299	 23.60	
 20.401	-175.153	  1.02314	 -0.13347	  1.22785	  0.41611	  0.52975	 -0.05087	  1.26745	709.27600	 23.60	
 20.407	-170.264	  1.02527	 -0.13100	  1.22274	  0.35846	  0.59090	 -0.04965	  1.27059	709.13599	 23.60	
 20.410	-165.423	  1.02328	 -0.12267	  1.20794	  0.30144	  0.65117	 -0.05063	  1.26858	709.08197	 23.60	
 20.392	-160.496	  1.02546	 -0.11033	  1.19053	  0.24893	  0.71374	 -0.05235	  1.27093	709.15198	 23.60	
 20.401	-155.705	  1.02309	 -0.09539	  1.16472	  0.19862	  0.77050	 -0.05222	  1.26918	709.15997	 23.60	
 20.405	-150.835	  1.02159	 -0.07722	  1.13449	  0.14938	  0.82872	 -0.05376	  1.26917	709.14203	 23.60	
 20.397	-145.903	  1.02201	 -0.05361	  1.10014	  0.10525	  0.88622	 -0.05509	  1.27000	709.33600	 23.60	
 20.392	-141.062	  1.01797	 -0.02692	  1.05751	  0.06491	  0.93715	 -0.05698	  1.26743	709.23602	 23.70	
 20.396	-136.227	  1.01495	  0.00299	  1.01167	  0.02711	  0.98571	 -0.05524	  1.26555	709.02600	 23.70	
 20.408	-131.372	  1.01342	  0.03588	  0.96384	 -0.00728	  1.03358	 -0.05532	  1.26672	709.07300	 23.70	
 20.410	-126.511	  1.01271	  0.07353	  0.91278	 -0.03708	  1.07593	 -0.05543	  1.26798	709.16101	 23.70	
 20.400	-121.604	  1.01194	  0.11564	  0.85785	 -0.06302	  1.11436	 -0.05674	  1.26892	709.16901	 23.70	
 20.403	-116.741	  1.01013	  0.16086	  0.80023	 -0.08525	  1.14729	 -0.05689	  1.26973	709.13300	 23.70	
 20.413	-111.900	  1.00865	  0.20828	  0.74058	 -0.10500	  1.17490	 -0.05531	  1.26984	709.09003	 23.70	
 20.398	-107.004	  1.00650	  0.25975	  0.67884	 -0.11925	  1.19573	 -0.05271	  1.26882	709.03198	 23.70	
 20.394	-102.132	  1.00715	  0.31419	  0.61796	 -0.13114	  1.21469	 -0.05198	  1.27144	709.18402	 23.70	
 20.403	-97.332	  1.00725	  0.36949	  0.55786	 -0.13954	  1.22774	 -0.05095	  1.27274	709.03497	 23.70	
 20.392	-92.440	  1.00289	  0.42782	  0.49483	 -0.14117	  1.22781	 -0.04972	  1.26832	708.03003	 23.70	
 20.392	-87.560	  1.00771	  0.49009	  0.43613	 -0.14159	  1.23454	 -0.04847	  1.27470	709.01703	 23.70	
 20.403	-82.668	  1.00728	  0.55158	  0.37686	 -0.13836	  1.23018	 -0.04546	  1.27434	708.97803	 23.70	
 20.394	-77.868	  1.00992	  0.61434	  0.32190	 -0.13144	  1.22389	 -0.04583	  1.27823	709.12097	 23.70	
 20.398	-72.996	  1.01164	  0.67731	  0.26763	 -0.11833	  1.20902	 -0.04583	  1.27843	709.01202	 23.70	
 20.413	-68.100	  1.00991	  0.73874	  0.21400	 -0.10381	  1.18571	 -0.04883	  1.27718	709.11902	 23.80	
 20.403	-63.259	  1.01031	  0.79843	  0.16565	 -0.08426	  1.15849	 -0.04596	  1.27648	709.22198	 23.80	
 20.400	-58.396	  1.00876	  0.85636	  0.11987	 -0.06062	  1.12415	 -0.04940	  1.27449	708.94702	 23.80	
 20.410	-53.489	  1.00851	  0.91208	  0.07663	 -0.03536	  1.08709	 -0.04573	  1.27347	709.08197	 23.80	
 20.408	-48.628	  1.00923	  0.96575	  0.03783	 -0.00574	  1.04601	 -0.04624	  1.27409	709.08801	 23.80	
 20.396	-43.773	  1.01163	  1.01702	  0.00407	  0.02912	  1.00149	 -0.04577	  1.27744	708.91302	 23.80	
 20.392	-38.938	  1.00695	  1.05748	 -0.02699	  0.06748	  0.94646	 -0.04571	  1.27005	709.10400	 23.80	
 20.397	-34.097	  1.00896	  1.10058	 -0.05395	  0.10775	  0.89614	 -0.04546	  1.27366	709.00299	 23.80	
 20.405	-29.165	  1.01037	  1.13933	 -0.07917	  0.15189	  0.84102	 -0.04543	  1.27614	709.07703	 23.80	
 20.401	-24.295	  1.00781	  1.16741	 -0.09787	  0.20080	  0.78040	 -0.04172	  1.27262	708.97803	 23.80	
 20.392	-19.504	  1.00848	  1.19229	 -0.11382	  0.25136	  0.72125	 -0.04101	  1.27197	709.07098	 23.80	
 20.410	-14.577	  1.00852	  1.21397	 -0.12751	  0.30407	  0.66128	 -0.03810	  1.27395	709.21100	 23.80	
 20.407	 -9.736	  1.00780	  1.22715	 -0.13656	  0.36030	  0.59959	 -0.03876	  1.27299	709.14899	 23.80	
 20.401	 -4.847	  1.00524	  1.23237	 -0.14080	  0.41741	  0.53630	 -0.03573	  1.26760	709.13800	 23.80	
 20.400	  0.000	  1.00888	  1.24012	 -0.14212	  0.47856	  0.47915	 -0.03592	  1.27226	708.89301	 23.90	
 20.401	  4.847	  1.00705	  1.23600	 -0.14021	  0.53879	  0.41898	 -0.03603	  1.27090	709.19702	 23.90	
 20.407	  9.736	  1.01250	  1.23621	 -0.13605	  0.60295	  0.36444	 -0.03650	  1.27729	709.11102	 23.90	
 20.410	 14.577	  1.00969	  1.21937	 -0.12584	  0.66243	  0.30819	 -0.03742	  1.27244	709.11102	 23.90	
 20.392	 19.504	  1.01028	  1.20101	 -0.11115	  0.72527	  0.25499	 -0.03705	  1.27231	708.90802	 23.90	
 20.401	 24.295	  1.01254	  1.17905	 -0.09486	  0.78589	  0.20660	 -0.04049	  1.27335	709.12402	 23.90	
 20.405	 29.165	  1.01147	  1.14960	 -0.07557	  0.84393	  0.15877	 -0.04184	  1.27255	709.11902	 23.90	
 20.397	 34.097	  1.01475	  1.11809	 -0.05122	  0.90387	  0.11509	 -0.04371	  1.27651	709.14099	 23.90	
 20.392	 38.938	  1.01460	  1.07834	 -0.02352	  0.95675	  0.07476	 -0.04575	  1.27462	709.14203	 23.90	
 20.396	 43.773	  1.01458	  1.03356	  0.00863	  1.00627	  0.03923	 -0.04588	  1.27317	709.09302	 23.90	
 20.408	 48.628	  1.01574	  0.98685	  0.04170	  1.05421	  0.00420	 -0.04709	  1.27481	709.11298	 23.90	
 20.410	 53.489	  1.01952	  0.93897	  0.07996	  1.10118	 -0.02600	 -0.04664	  1.27895	709.18298	 23.90	
 20.400	 58.396	  1.01609	  0.87982	  0.12249	  1.13451	 -0.05149	 -0.04771	  1.27418	709.23901	 23.90	
 20.403	 63.259	  1.02233	  0.82715	  0.16828	  1.17312	 -0.07326	 -0.04825	  1.28060	709.11102	 23.90	
 20.413	 68.100	  1.01851	  0.76629	  0.21637	  1.19602	 -0.09146	 -0.04995	  1.27609	709.15002	 23.90	
 20.398	 72.996	  1.01492	  0.70285	  0.26683	  1.21211	 -0.10450	 -0.05188	  1.26991	709.10999	 24.00	
 20.394	 77.868	  1.01701	  0.64213	  0.32167	  1.22991	 -0.11613	 -0.05222	  1.27235	709.12799	 24.00	
 20.403	 82.668	  1.01547	  0.58100	  0.37596	  1.23916	 -0.12320	 -0.05102	  1.27046	709.03497	 24.00	
 20.392	 87.560	  1.01513	  0.51956	  0.43514	  1.24274	 -0.12577	 -0.04994	  1.26827	709.16602	 24.00	
 20.392	 92.440	  1.02044	  0.46137	  0.49829	  1.24748	 -0.12611	 -0.05125	  1.27501	709.08801	 24.00	
 20.403	 97.332	  1.02006	  0.40193	  0.55888	  1.24247	 -0.12329	 -0.04772	  1.27338	709.16699	 24.00	
 20.394	102.132	  1.02262	  0.34654	  0.62073	  1.23378	 -0.11558	 -0.04689	  1.27626	709.17700	 24.00	
 20.398	107.004	  1.02065	  0.29112	  0.68206	  1.21517	 -0.10448	 -0.04893	  1.27298	709.16901	 24.00	
 20.413	111.900	  1.02310	  0.23859	  0.74432	  1.19672	 -0.09101	 -0.04853	  1.27627	709.24500	 24.00	
 20.403	116.741	  1.02252	  0.18972	  0.80323	  1.16764	 -0.07244	 -0.05232	  1.27360	709.11603	 24.00	
 20.400	121.604	  1.02393	  0.14329	  0.86242	  1.13672	 -0.05128	 -0.05477	  1.27647	709.09601	 24.00	
 20.410	126.511	  1.02167	  0.09916	  0.91560	  1.09617	 -0.02624	 -0.05724	  1.27305	709.20300	 24.00	
 20.408	131.372	  1.02617	  0.05972	  0.97231	  1.05673	  0.00346	 -0.05725	  1.27789	709.27002	 24.00	
 20.396	136.227	  1.02611	  0.02430	  1.01998	  1.00871	  0.03703	 -0.05837	  1.27587	709.09601	 24.00	
 20.392	141.062	  1.02402	 -0.00734	  1.06232	  0.95623	  0.07298	 -0.05528	  1.27244	709.12701	 24.00	
 20.397	145.903	  1.02274	 -0.03640	  1.10056	  0.90095	  0.11123	 -0.05225	  1.27132	709.20001	 24.00	
 20.405	150.835	  1.02827	 -0.06276	  1.14197	  0.84685	  0.15638	 -0.05376	  1.27754	709.11603	 24.00	
 20.401	155.705	  1.02590	 -0.08329	  1.16829	  0.78444	  0.20293	 -0.05721	  1.27233	707.52600	 24.00	
 20.392	160.496	  1.02533	 -0.09970	  1.19081	  0.72494	  0.25082	 -0.05649	  1.27083	709.12402	 24.10	
 20.410	165.423	  1.02544	 -0.11411	  1.21046	  0.66156	  0.30384	 -0.05643	  1.27076	709.15198	 24.10	
 20.407	170.264	  1.02544	 -0.12509	  1.22353	  0.59973	  0.35732	 -0.05567	  1.27084	709.03101	 24.10	
 20.401	175.153	  1.02817	 -0.13249	  1.23487	  0.53979	  0.41498	 -0.05598	  1.27376	709.21198	 24.10	
  0.141	 45.000	  1.28080	  0.70216	  0.69159	  0.70323	  0.70639	  0.00891	  1.27021	709.13599	 24.10	
  4.001	128.691	  1.27622	  0.60440	  0.77489	  0.81131	  0.58319	  0.00469	  1.26889	709.23401	 24.10	
  4.002	 76.995	  1.27742	  0.72475	  0.65088	  0.84224	  0.56012	  0.00542	  1.27029	709.16699	 24.10	
  4.002	 25.892	  1.27765	  0.82746	  0.55980	  0.76058	  0.62987	  0.00557	  1.27127	709.17499	 24.10	
  4.002	-25.892	  1.27389	  0.82407	  0.55815	  0.63125	  0.75407	  0.00162	  1.26891	709.16101	 24.10	
  4.002	-76.995	  1.27758	  0.72206	  0.64982	  0.56088	  0.83901	  0.00026	  1.27284	709.15302	 24.10	
  4.001	-128.691	  1.28107	  0.60098	  0.77980	  0.58747	  0.80953	  0.00285	  1.27511	709.18402	 24.10	
  4.000	180.000	  1.27985	  0.55421	  0.83633	  0.69544	  0.69102	  0.00546	  1.27279	709.25403	 24.10	
  8.000	180.000	  1.26117	  0.38570	  0.97217	  0.66856	  0.66425	 -0.01102	  1.27637	709.15302	 24.10	
  7.991	-152.370	  1.25678	  0.41087	  0.93264	  0.53184	  0.80187	 -0.01032	  1.27177	709.15997	 24.10	
  7.997	-124.550	  1.25064	  0.49332	  0.82825	  0.43157	  0.91388	 -0.01511	  1.26944	709.25098	 24.10	
  8.006	-96.837	  1.25000	  0.62085	  0.69057	  0.38820	  0.97028	 -0.02008	  1.27116	709.25403	 24.10	
  7.988	-69.228	  1.25191	  0.76597	  0.55255	  0.40562	  0.95386	 -0.02064	  1.27254	709.18701	 24.20	
  7.997	-41.563	  1.24748	  0.88861	  0.44187	  0.47524	  0.86557	 -0.01841	  1.26850	709.25897	 24.20	
  8.008	-13.821	  1.25181	  0.96520	  0.38481	  0.59764	  0.73581	 -0.01419	  1.27233	708.41302	 24.20	
  8.008	 13.821	  1.25294	  0.96683	  0.38434	  0.74019	  0.59395	 -0.01219	  1.27092	709.30798	 24.20	
  7.997	 41.563	  1.25256	  0.89622	  0.44235	  0.87124	  0.47676	 -0.00880	  1.26961	707.68701	 24.20	
  7.988	 69.228	  1.25633	  0.77574	  0.55176	  0.96105	  0.40548	 -0.00913	  1.27285	707.58698	 24.20	
  8.006	 96.837	  1.26236	  0.63608	  0.69455	  0.98440	  0.39224	 -0.01239	  1.27904	707.56201	 24.20	
  7.997	124.550	  1.25447	  0.50402	  0.82782	  0.92315	  0.43296	 -0.01244	  1.27025	707.90601	 24.20	
  7.991	152.370	  1.25063	  0.41521	  0.92704	  0.80504	  0.52772	 -0.01085	  1.26618	708.19897	 24.20	
 12.009	161.059	  1.20772	  0.23256	  1.05418	  0.76850	  0.47758	 -0.03261	  1.27241	709.17999	 24.20	
 12.013	142.081	  1.20580	  0.29419	  0.97747	  0.90683	  0.35941	 -0.03527	  1.27204	707.61603	 24.20	
 12.006	123.113	  1.20886	  0.39308	  0.86370	  1.01690	  0.27587	 -0.03824	  1.27636	709.18298	 24.20	
 12.007	104.200	  1.20900	  0.51998	  0.72237	  1.08194	  0.22761	 -0.03671	  1.27667	708.86499	 24.20	
 11.989	 85.301	  1.20568	  0.66238	  0.57299	  1.09121	  0.21854	 -0.03502	  1.27300	709.06299	 24.20	
 12.013	 66.294	  1.20684	  0.80921	  0.43755	  1.05357	  0.24874	 -0.03106	  1.27351	708.47198	 24.20	
 12.012	 47.388	  1.20663	  0.93868	  0.32612	  0.96680	  0.31654	 -0.03125	  1.27495	709.21100	 24.20	
 11.990	 28.440	  1.20631	  1.03454	  0.24901	  0.84410	  0.41888	 -0.02968	  1.27700	709.08801	 24.20	
 11.991	  9.464	  1.20128	  1.08116	  0.20899	  0.69727	  0.54787	 -0.03443	  1.27247	707.64099	 24.30	
 11.991	 -9.464	  1.20128	  1.07977	  0.20962	  0.55140	  0.69311	 -0.03650	  1.27363	707.73102	 24.30	
 11.990	-28.440	  1.19994	  1.02586	  0.24844	  0.41827	  0.83720	 -0.03796	  1.27415	709.36102	 24.30	
 12.012	-47.388	  1.19323	  0.92244	  0.32326	  0.31224	  0.95470	 -0.04330	  1.26784	708.76398	 24.30	
 12.013	-66.294	  1.19950	  0.79473	  0.43642	  0.24359	  1.04683	 -0.04417	  1.27418	707.61102	 24.30	
 11.989	-85.301	  1.20057	  0.64724	  0.57441	  0.21367	  1.08411	 -0.04568	  1.27473	707.58002	 24.30	
 12.007	-104.200	  1.19488	  0.50036	  0.71785	  0.22146	  1.06502	 -0.04303	  1.26775	707.48700	 24.30	
 12.006	-123.113	  1.20084	  0.37597	  0.86079	  0.27011	  1.00335	 -0.03815	  1.26995	708.78302	 24.30	
 12.013	-142.081	  1.20572	  0.28306	  0.97831	  0.35894	  0.89690	 -0.03417	  1.27171	707.52600	 24.30	
 12.009	-161.059	  1.21042	  0.22778	  1.05570	  0.48013	  0.76288	 -0.03184	  1.27383	707.49799	 24.30	
 16.000	180.000	  1.13647	  0.04586	  1.16776	  0.56180	  0.55834	 -0.05354	  1.27153	707.50098	 24.30	
 15.990	-165.604	  1.13276	  0.05872	  1.14398	  0.42238	  0.69998	 -0.05403	  1.26739	707.49200	 24.30	
 16.002	-151.165	  1.13282	  0.09835	  1.08724	  0.29787	  0.84163	 -0.05470	  1.26944	707.56299	 24.30	
 16.002	-136.836	  1.12985	  0.16406	  0.99531	  0.19388	  0.96833	 -0.05388	  1.27090	709.28400	 24.30	
 15.995	-122.439	  1.12567	  0.25903	  0.87409	  0.11905	  1.06794	 -0.05725	  1.27042	707.78198	 24.30	
 15.993	-107.966	  1.12319	  0.37847	  0.73469	  0.07117	  1.13709	 -0.06162	  1.27133	707.49200	 24.30	
 16.005	-93.629	  1.11946	  0.51218	  0.58839	  0.04864	  1.16667	 -0.05862	  1.27119	707.64398	 24.30	
 15.992	-79.234	  1.11767	  0.65660	  0.44651	  0.05625	  1.15735	 -0.05467	  1.26987	707.58698	 24.30	
 16.009	-64.774	  1.11796	  0.80212	  0.31740	  0.09101	  1.11032	 -0.05571	  1.27023	707.59003	 24.40	
 15.997	-50.364	  1.12225	  0.93745	  0.21177	  0.15712	  1.02848	 -0.05755	  1.27363	707.59302	 24.40	
 15.997	-36.045	  1.11968	  1.04519	  0.12799	  0.24568	  0.91352	 -0.05290	  1.27045	707.67700	 24.40	
 16.000	-21.597	  1.12542	  1.12912	  0.07424	  0.36199	  0.78367	 -0.04765	  1.27728	707.51398	 24.40	
 16.003	 -7.169	  1.12333	  1.16850	  0.04419	  0.49416	  0.63577	 -0.04566	  1.27388	707.58002	 24.40	
 16.003	  7.169	  1.12274	  1.16816	  0.04632	  0.63780	  0.49338	 -0.04582	  1.27141	707.61603	 24.40	
 16.000	 21.597	  1.12790	  1.13536	  0.07708	  0.78646	  0.36533	 -0.04640	  1.27537	707.65601	 24.40	
 15.997	 36.045	  1.12949	  1.06148	  0.13283	  0.92236	  0.25373	 -0.04527	  1.27512	707.73700	 24.40	
 15.997	 50.364	  1.13130	  0.95633	  0.21394	  1.03864	  0.16392	 -0.05233	  1.27604	707.60101	 24.40	
 16.009	 64.774	  1.12663	  0.82272	  0.31874	  1.11826	  0.10030	 -0.05236	  1.27020	707.63599	 24.40	
 15.992	 79.234	  1.12974	  0.68084	  0.44836	  1.16844	  0.06670	 -0.05572	  1.27165	707.50000	 24.40	
 16.005	 93.629	  1.13084	  0.53611	  0.58919	  1.17923	  0.05837	 -0.05794	  1.27291	707.49402	 24.40	
 15.993	107.966	  1.13257	  0.39981	  0.73468	  1.15159	  0.07700	 -0.05568	  1.27488	707.56500	 24.40	
 15.995	122.439	  1.13307	  0.27770	  0.87483	  1.08329	  0.12385	 -0.06002	  1.27462	707.57397	 24.40	
 16.002	136.836	  1.13515	  0.18020	  0.99802	  0.98293	  0.19917	 -0.06026	  1.27549	707.60101	 24.40	
 16.002	151.165	  1.13354	  0.10521	  1.08974	  0.85338	  0.29584	 -0.05496	  1.27293	707.59698	 24.40	
 15.990	165.604	  1.13109	  0.06158	  1.14365	  0.70676	  0.41852	 -0.05536	  1.26812	707.57898	 24.40	
 20.003	168.362	  1.03584	 -0.10217	  1.21233	  0.63061	  0.34942	 -0.05628	  1.26957	707.70599	 24.40	
 20.008	156.764	  1.03390	 -0.06978	  1.16723	  0.77424	  0.22692	 -0.05423	  1.26996	707.63599	 24.40	
 20.000	145.147	  1.03405	 -0.01454	  1.09208	  0.91072	  0.12277	 -0.05518	  1.27009	707.73499	 24.40	
 19.995	133.545	  1.03312	  0.05986	  0.98908	  1.03014	  0.03689	 -0.05882	  1.27109	707.68103	 24.40	
 20.009	121.926	  1.03117	  0.15367	  0.86468	  1.12730	 -0.03121	 -0.05509	  1.27249	707.70001	 24.50	
 20.005	110.327	  1.03168	  0.26714	  0.72782	  1.19590	 -0.07609	 -0.04981	  1.27367	707.68402	 24.50	
 19.989	 98.733	  1.03031	  0.39538	  0.58417	  1.23152	 -0.09977	 -0.05053	  1.27121	707.72198	 24.50	
 19.999	 87.075	  1.03345	  0.53721	  0.44281	  1.24462	 -0.10579	 -0.05400	  1.27604	707.69202	 24.50	
 19.992	 75.457	  1.03072	  0.67894	  0.30932	  1.21866	 -0.08881	 -0.05116	  1.27260	707.63898	 24.50	
 20.009	 63.844	  1.02820	  0.81808	  0.18926	  1.16518	 -0.05406	 -0.05065	  1.27201	707.63501	 24.50	
 19.989	 52.269	  1.02334	  0.94387	  0.08737	  1.07883	  0.00292	 -0.04989	  1.26804	708.40302	 24.50	
 19.999	 40.602	  1.02389	  1.05802	  0.00490	  0.97252	  0.07959	 -0.04904	  1.27092	707.69501	 24.50	
 20.004	 29.051	  1.02028	  1.14280	 -0.05749	  0.84280	  0.17578	 -0.04277	  1.26871	708.20599	 24.50	
 20.005	 17.433	  1.02214	  1.20500	 -0.10008	  0.70575	  0.29104	 -0.03732	  1.27365	707.73499	 24.50	
 20.006	  5.780	  1.02050	  1.23135	 -0.11995	  0.56078	  0.42105	 -0.03705	  1.27162	707.60999	 24.50	
 20.006	 -5.780	  1.01685	  1.22558	 -0.12069	  0.41910	  0.55758	 -0.03720	  1.26826	707.71198	 24.50	
 20.005	-17.433	  1.01865	  1.19561	 -0.10080	  0.28698	  0.70193	 -0.03988	  1.27097	707.73901	 24.50	
 20.004	-29.051	  1.02323	  1.13759	 -0.06104	  0.17026	  0.84398	 -0.04314	  1.27593	707.68701	 24.50	
 19.999	-40.602	  1.01690	  1.03872	  0.00234	  0.07296	  0.96352	 -0.04482	  1.26678	707.68298	 24.50	
 19.989	-52.269	  1.02082	  0.92685	  0.08443	 -0.00777	  1.07691	 -0.04587	  1.27458	707.74902	 24.50	
 20.009	-63.844	  1.01957	  0.79334	  0.18641	 -0.06481	  1.15663	 -0.04719	  1.27255	707.67297	 24.50	
 19.992	-75.457	  1.01721	  0.64958	  0.30629	 -0.10176	  1.20519	 -0.04506	  1.26880	707.64697	 24.50	
 19.999	-87.075	  1.02075	  0.50717	  0.44143	 -0.11919	  1.23175	 -0.04806	  1.27448	707.67999	 24.50	
 19.989	-98.733	  1.02010	  0.36632	  0.58444	 -0.11331	  1.22085	 -0.05233	  1.27247	707.69702	 24.50	
 20.005	-110.327	  1.02266	  0.23914	  0.72834	 -0.08902	  1.18256	 -0.05618	  1.27217	707.68298	 24.50	
 20.009	-121.926	  1.02650	  0.12853	  0.86626	 -0.04206	  1.11409	 -0.05628	  1.27175	707.78497	 24.60	
 19.995	-133.545	  1.03186	  0.03913	  0.99041	  0.02710	  1.01924	 -0.05605	  1.27341	707.71997	 24.50	
 20.000	-145.147	  1.03662	 -0.03201	  1.09510	  0.11641	  0.90185	 -0.05631	  1.27507	707.80103	 24.60	
 20.008	-156.764	  1.03439	 -0.08034	  1.16635	  0.22461	  0.76399	 -0.05356	  1.26950	707.86102	 24.60	
 20.003	-168.362	  1.03641	 -0.10739	  1.21211	  0.35019	  0.62435	 -0.05065	  1.26979	707.77002	 24.60	
 20.000	180.000	  1.03938	 -0.11529	  1.23088	  0.48799	  0.48476	 -0.05234	  1.27368	707.72198	 24.60	
