FileType=PCF
NHL=14
Date=03/12/19	14:49:56
Facility=APL
Serial=16071-1
Customer=NASA
NP=6
Mach=0.080000
Calibration=1:1
CalPts=490
TstPts=95
PortNumbering=AP Standard
Units=Torr C m/s kg/m^3 deg mm 
Theta[deg]	Phi[deg]	P1[Torr]	P2[Torr]	P3[Torr]	P4[Torr]	P5[Torr]	P6[Torr]	Pt[Torr]	Ps[Abs,Torr]	Ts[C]	
  0.000	  0.000	  3.17210	  1.35219	  1.42036	  1.38083	  1.35905	  0.06196	  3.16568	711.06000	 23.20	
  1.691	128.401	  3.17062	  1.25892	  1.48987	  1.48928	  1.22958	  0.05784	  3.16461	711.10999	 23.20	
  1.692	 77.194	  3.17223	  1.38031	  1.37389	  1.51004	  1.21637	  0.06429	  3.16493	711.12000	 23.20	
  1.699	 26.182	  3.17196	  1.48283	  1.28150	  1.42639	  1.30021	  0.06527	  3.16485	711.06000	 23.20	
  1.699	-26.182	  3.16916	  1.47321	  1.28866	  1.30686	  1.42020	  0.06274	  3.16380	711.06000	 23.20	
  1.692	-77.194	  3.17146	  1.37499	  1.38492	  1.23410	  1.49309	  0.05594	  3.16551	711.54999	 23.20	
  1.691	-128.401	  3.16930	  1.24832	  1.51046	  1.26095	  1.45609	  0.05446	  3.16532	711.03003	 23.20	
  1.700	180.000	  3.16947	  1.19673	  1.55604	  1.37280	  1.33571	  0.05159	  3.16435	711.85999	 23.20	
  3.400	180.000	  3.16248	  1.02231	  1.72085	  1.36040	  1.30840	  0.03698	  3.16410	711.71002	 23.20	
  3.388	-152.325	  3.16165	  1.04965	  1.68862	  1.21496	  1.45719	  0.03890	  3.16411	711.09003	 23.20	
  3.397	-124.529	  3.16007	  1.13731	  1.58420	  1.10481	  1.58010	  0.04084	  3.16170	711.00000	 23.20	
  3.399	-96.763	  3.16129	  1.26998	  1.43947	  1.05647	  1.64601	  0.04106	  3.16347	711.81000	 23.20	
  3.394	-69.283	  3.16424	  1.41700	  1.29452	  1.07084	  1.63463	  0.04496	  3.16353	711.15002	 23.20	
  3.400	-41.398	  3.16749	  1.55063	  1.17632	  1.14877	  1.54632	  0.05085	  3.16530	711.67999	 23.20	
  3.401	-14.021	  3.16842	  1.62781	  1.11258	  1.27101	  1.41383	  0.05577	  3.16481	710.96002	 23.20	
  3.401	 14.021	  3.16692	  1.63584	  1.10816	  1.41280	  1.27585	  0.06009	  3.16273	711.06000	 23.20	
  3.400	 41.398	  3.16791	  1.56565	  1.16149	  1.55317	  1.14734	  0.06179	  3.16346	711.16998	 23.20	
  3.394	 69.283	  3.16796	  1.44224	  1.26931	  1.65049	  1.05809	  0.06071	  3.16380	711.02002	 23.20	
  3.399	 96.763	  3.16790	  1.29684	  1.41356	  1.67847	  1.03175	  0.05321	  3.16490	711.10999	 23.20	
  3.397	124.529	  3.16531	  1.15988	  1.56002	  1.62569	  1.07104	  0.04575	  3.16444	711.04999	 23.20	
  3.388	152.325	  3.16300	  1.05931	  1.67341	  1.50632	  1.17108	  0.04101	  3.16334	711.10999	 23.20	
  5.099	161.165	  3.14529	  0.85916	  1.84957	  1.49914	  1.12316	  0.02042	  3.16464	711.17999	 23.20	
  5.109	142.013	  3.14709	  0.93185	  1.75775	  1.65126	  0.98911	  0.02524	  3.16546	711.10999	 23.20	
  5.095	123.033	  3.15076	  1.04808	  1.62320	  1.76666	  0.89588	  0.03097	  3.16491	711.12000	 23.20	
  5.105	104.191	  3.15271	  1.19197	  1.46631	  1.83150	  0.85043	  0.03629	  3.16497	711.08002	 23.20	
  5.093	 85.207	  3.15310	  1.35316	  1.30482	  1.83788	  0.85204	  0.04428	  3.16308	711.01001	 23.20	
  5.104	 66.290	  3.15540	  1.51007	  1.15777	  1.78915	  0.89512	  0.04917	  3.16439	711.79999	 23.20	
  5.094	 47.331	  3.15753	  1.65063	  1.03739	  1.68641	  0.98275	  0.05182	  3.16547	711.65997	 23.20	
  5.089	 28.397	  3.15581	  1.74990	  0.95921	  1.54499	  1.10597	  0.05216	  3.16262	711.83002	 23.20	
  5.096	  9.576	  3.15675	  1.80025	  0.92575	  1.38943	  1.25355	  0.04822	  3.16239	711.82001	 23.20	
  5.096	 -9.576	  3.15614	  1.79428	  0.92999	  1.23211	  1.40863	  0.04419	  3.16402	711.85999	 23.20	
  5.089	-28.397	  3.15618	  1.73324	  0.97519	  1.09274	  1.56031	  0.03668	  3.16621	711.76001	 23.20	
  5.094	-47.331	  3.15349	  1.62337	  1.06517	  0.97769	  1.69297	  0.03110	  3.16570	711.85999	 23.20	
  5.104	-66.290	  3.15217	  1.47845	  1.19355	  0.90190	  1.78353	  0.02549	  3.16673	711.79999	 23.20	
  5.093	-85.207	  3.14946	  1.31691	  1.34742	  0.87297	  1.81488	  0.02310	  3.16628	711.78998	 23.20	
  5.105	-104.191	  3.14582	  1.16036	  1.50943	  0.88710	  1.78973	  0.02195	  3.16495	711.88000	 23.20	
  5.095	-123.033	  3.14431	  1.01945	  1.66130	  0.94093	  1.71416	  0.01943	  3.16469	711.72998	 23.20	
  5.109	-142.013	  3.14327	  0.91355	  1.78638	  1.04209	  1.58929	  0.01949	  3.16477	711.75000	 23.20	
  5.099	-161.165	  3.14240	  0.84959	  1.86420	  1.18320	  1.43284	  0.01889	  3.16583	711.79999	 23.20	
  5.100	180.000	  3.14505	  0.83373	  1.88527	  1.34212	  1.27405	  0.01862	  3.16637	711.73999	 23.20	
  6.800	180.000	  3.11329	  0.64358	  2.04198	  1.31869	  1.23162	 -0.00549	  3.16529	711.76001	 23.20	
  6.796	-166.229	  3.11389	  0.65530	  2.03046	  1.16257	  1.39054	 -0.00708	  3.16625	711.69000	 23.20	
  6.808	-152.311	  3.11250	  0.69877	  1.97275	  1.01079	  1.55315	 -0.00659	  3.16517	711.78998	 23.20	
  6.795	-138.383	  3.11072	  0.77340	  1.87682	  0.88250	  1.69747	 -0.00358	  3.16255	711.73999	 23.20	
  6.792	-124.591	  3.11539	  0.87916	  1.75600	  0.78928	  1.81924	 -0.00574	  3.16597	711.75000	 23.30	
  6.787	-110.754	  3.11727	  1.01109	  1.60649	  0.72336	  1.91004	 -0.00504	  3.16606	711.75000	 23.20	
  6.800	-96.985	  3.12063	  1.15890	  1.44945	  0.68767	  1.96413	 -0.00194	  3.16680	710.97998	 23.20	
  6.800	-83.015	  3.12093	  1.31636	  1.28463	  0.68106	  1.97304	 -0.00066	  3.16457	711.70001	 23.20	
  6.787	-69.246	  3.12733	  1.47846	  1.13526	  0.71212	  1.94080	  0.00156	  3.16812	711.65997	 23.20	
  6.792	-55.409	  3.12719	  1.62933	  1.00046	  0.77156	  1.86616	  0.00550	  3.16581	710.91998	 23.20	
  6.795	-41.617	  3.13176	  1.76432	  0.89132	  0.86382	  1.75961	  0.01034	  3.16857	711.65997	 23.20	
  6.808	-27.689	  3.13234	  1.86872	  0.80895	  0.98173	  1.62219	  0.01496	  3.16574	711.69000	 23.30	
  6.796	-13.771	  3.13418	  1.93587	  0.76010	  1.12289	  1.46840	  0.02315	  3.16518	711.63000	 23.20	
  6.800	  0.000	  3.13611	  1.96456	  0.73955	  1.27347	  1.31150	  0.02804	  3.16564	711.72998	 23.20	
  6.796	 13.771	  3.13618	  1.95051	  0.74468	  1.42946	  1.15660	  0.03104	  3.16609	711.70001	 23.30	
  6.808	 27.689	  3.13525	  1.89343	  0.78249	  1.58898	  1.00785	  0.03519	  3.16283	711.67999	 23.30	
  6.795	 41.617	  3.13364	  1.79937	  0.85234	  1.73602	  0.88031	  0.03630	  3.16436	711.71997	 23.30	
  6.792	 55.409	  3.13351	  1.67415	  0.95444	  1.85393	  0.78167	  0.03299	  3.16371	711.79999	 23.30	
  6.787	 69.246	  3.13042	  1.52466	  1.08396	  1.94051	  0.71096	  0.03072	  3.16294	711.76001	 23.30	
  6.800	 83.015	  3.13024	  1.36724	  1.22943	  1.99191	  0.66676	  0.02555	  3.16600	711.78003	 23.30	
  6.800	 96.985	  3.12351	  1.20588	  1.38586	  1.99645	  0.65635	  0.02130	  3.16091	711.70001	 23.30	
  6.787	110.754	  3.12423	  1.05335	  1.54881	  1.96129	  0.68022	  0.01313	  3.16437	711.64001	 23.30	
  6.792	124.591	  3.12065	  0.91436	  1.70253	  1.88551	  0.73424	  0.00903	  3.16512	711.69000	 23.30	
  6.795	138.383	  3.11894	  0.80206	  1.83631	  1.77508	  0.82153	  0.00490	  3.16611	711.67999	 23.30	
  6.808	152.311	  3.11447	  0.71650	  1.94237	  1.63446	  0.93755	 -0.00166	  3.16392	711.70001	 23.30	
  6.796	166.229	  3.11282	  0.66352	  2.01201	  1.47713	  1.07887	 -0.00263	  3.16436	711.82001	 23.30	
  8.491	168.704	  3.07106	  0.47021	  2.16519	  1.45053	  1.02619	 -0.02954	  3.16484	711.79999	 23.30	
  8.502	157.493	  3.07116	  0.51226	  2.10481	  1.61317	  0.87834	 -0.03032	  3.16393	711.79999	 23.30	
  8.494	146.194	  3.07318	  0.58548	  2.00806	  1.76718	  0.74802	 -0.02572	  3.16328	711.75000	 23.30	
  8.495	135.039	  3.07610	  0.68321	  1.88864	  1.89850	  0.64711	 -0.01890	  3.16217	711.56000	 23.30	
  8.487	123.723	  3.08159	  0.80098	  1.74782	  2.01165	  0.56237	 -0.01701	  3.16549	711.67999	 23.30	
  8.492	112.575	  3.08205	  0.93680	  1.59174	  2.08980	  0.50492	 -0.01279	  3.16325	711.63000	 23.30	
  8.510	101.220	  3.08697	  1.09266	  1.42654	  2.14283	  0.47126	 -0.01005	  3.16566	711.67999	 23.30	
  8.500	 90.000	  3.08956	  1.25192	  1.26166	  2.15475	  0.46474	 -0.00196	  3.16485	711.71002	 23.30	
  8.510	 78.780	  3.09248	  1.41888	  1.10469	  2.13026	  0.48833	  0.00384	  3.16590	711.64001	 23.30	
  8.492	 67.425	  3.09601	  1.58491	  0.95623	  2.06723	  0.53944	  0.00650	  3.16575	711.67999	 23.30	
  8.487	 56.277	  3.09673	  1.73557	  0.82810	  1.97475	  0.61140	  0.00995	  3.16422	711.71002	 23.30	
  8.495	 44.961	  3.09820	  1.86840	  0.72232	  1.85244	  0.71124	  0.01395	  3.16372	711.65002	 23.30	
  8.494	 33.806	  3.10068	  1.97947	  0.63808	  1.71470	  0.82686	  0.01516	  3.16494	711.67999	 23.30	
  8.502	 22.507	  3.10071	  2.05955	  0.57902	  1.55559	  0.96660	  0.01208	  3.16391	711.70001	 23.30	
  8.491	 11.296	  3.09882	  2.10504	  0.54778	  1.38760	  1.11806	  0.00866	  3.16148	711.71997	 23.30	
  8.500	  0.000	  3.09759	  2.11681	  0.54349	  1.22484	  1.27998	  0.00711	  3.16316	711.71997	 23.30	
  8.491	-11.296	  3.09894	  2.09181	  0.56660	  1.07023	  1.44561	 -0.00050	  3.16547	711.60999	 23.30	
  8.502	-22.507	  3.09534	  2.03309	  0.60700	  0.92107	  1.60610	 -0.00985	  3.16300	711.63000	 23.30	
  8.494	-33.806	  3.09675	  1.94074	  0.67917	  0.79472	  1.75674	 -0.01400	  3.16760	711.56000	 23.30	
  8.495	-44.961	  3.09336	  1.82039	  0.77098	  0.68420	  1.88771	 -0.01820	  3.16635	711.67999	 23.30	
  8.487	-56.277	  3.08653	  1.67713	  0.88399	  0.59428	  1.99408	 -0.02114	  3.16197	711.60999	 23.30	
  8.492	-67.425	  3.08762	  1.52148	  1.02077	  0.53122	  2.07660	 -0.02784	  3.16614	711.66998	 23.30	
  8.510	-78.780	  3.07983	  1.35342	  1.17351	  0.49260	  2.12053	 -0.02969	  3.16432	711.65997	 23.30	
  8.500	-90.000	  3.08111	  1.19177	  1.33507	  0.48724	  2.12863	 -0.02944	  3.16693	711.65997	 23.30	
  8.510	-101.220	  3.07615	  1.03362	  1.50033	  0.50462	  2.09953	 -0.03104	  3.16461	711.53003	 23.30	
  8.492	-112.575	  3.07485	  0.88609	  1.66508	  0.54989	  2.03479	 -0.03381	  3.16611	711.53003	 23.30	
  8.487	-123.723	  3.07252	  0.75617	  1.81466	  0.61812	  1.93966	 -0.03293	  3.16525	711.59998	 23.30	
  8.495	-135.039	  3.06966	  0.64320	  1.94922	  0.71171	  1.81532	 -0.02941	  3.16485	711.21997	 23.30	
  8.494	-146.194	  3.06897	  0.55706	  2.05718	  0.82794	  1.67308	 -0.03157	  3.16604	711.65002	 23.30	
  8.502	-157.493	  3.06701	  0.49689	  2.13430	  0.96662	  1.51577	 -0.03442	  3.16376	711.65002	 23.30	
  8.491	-168.704	  3.06924	  0.46354	  2.18030	  1.12259	  1.34938	 -0.03298	  3.16529	711.59003	 23.30	
  8.500	180.000	  3.06942	  0.45350	  2.19156	  1.28550	  1.18524	 -0.03257	  3.16569	711.59998	 23.30	
 10.200	180.000	  3.01487	  0.26756	  2.33140	  1.24803	  1.12925	 -0.05937	  3.16518	711.54999	 23.30	
 10.191	-170.497	  3.01477	  0.27673	  2.32220	  1.08294	  1.29839	 -0.06158	  3.16567	711.53003	 23.30	
 10.210	-161.034	  3.01472	  0.29994	  2.28850	  0.92196	  1.46753	 -0.06187	  3.16634	711.60999	 23.30	
 10.194	-151.526	  3.01312	  0.35068	  2.21834	  0.77683	  1.62984	 -0.05751	  3.16396	711.56000	 23.30	
 10.190	-142.105	  3.01672	  0.42172	  2.12607	  0.64860	  1.78399	 -0.05706	  3.16571	711.67999	 23.30	
 10.215	-132.646	  3.01596	  0.51559	  2.00485	  0.53597	  1.92823	 -0.05736	  3.16530	711.58002	 23.30	
 10.203	-123.092	  3.01711	  0.62803	  1.86419	  0.44473	  2.04979	 -0.06005	  3.16357	711.53003	 23.30	
 10.192	-113.678	  3.02019	  0.75646	  1.71299	  0.37793	  2.14543	 -0.06015	  3.16478	711.63000	 23.30	
 10.208	-104.249	  3.02326	  0.89924	  1.55243	  0.33121	  2.21666	 -0.05833	  3.16547	711.65002	 23.40	
 10.210	-94.801	  3.02690	  1.05527	  1.38390	  0.30586	  2.25964	 -0.05606	  3.16673	710.94000	 23.40	
 10.210	-85.199	  3.03035	  1.22038	  1.21621	  0.30018	  2.27126	 -0.05544	  3.16581	711.57001	 23.30	
 10.208	-75.751	  3.03084	  1.38848	  1.05396	  0.31536	  2.25075	 -0.05787	  3.16454	711.53003	 23.30	
 10.192	-66.322	  3.03419	  1.55558	  0.90395	  0.35483	  2.19901	 -0.05532	  3.16407	711.13000	 23.40	
 10.203	-56.908	  3.03789	  1.71363	  0.76682	  0.41146	  2.12155	 -0.05213	  3.16478	711.50000	 23.30	
 10.215	-47.354	  3.04323	  1.86574	  0.64778	  0.49537	  2.01601	 -0.04767	  3.16794	711.53998	 23.40	
 10.190	-37.895	  3.04512	  1.99403	  0.54859	  0.60255	  1.88218	 -0.04569	  3.16353	710.95001	 23.40	
 10.194	-28.474	  3.04767	  2.10367	  0.47034	  0.72468	  1.73700	 -0.04155	  3.16453	711.60999	 23.40	
 10.210	-18.966	  3.04988	  2.18843	  0.40847	  0.85989	  1.58010	 -0.03531	  3.16622	710.82001	 23.30	
 10.191	 -9.503	  3.05375	  2.24083	  0.37317	  1.01211	  1.41311	 -0.02718	  3.16623	711.42999	 23.40	
 10.200	  0.000	  3.05226	  2.26179	  0.35262	  1.17285	  1.24347	 -0.02050	  3.16364	711.48999	 23.40	
 10.191	  9.503	  3.05581	  2.25328	  0.35858	  1.33923	  1.08060	 -0.01745	  3.16501	711.58002	 23.40	
 10.210	 18.966	  3.05645	  2.21572	  0.38223	  1.50947	  0.92178	 -0.01288	  3.16561	710.94000	 23.40	
 10.194	 28.474	  3.05561	  2.14625	  0.43083	  1.67550	  0.77797	 -0.00939	  3.16626	711.59998	 23.40	
 10.190	 37.895	  3.05286	  2.04903	  0.49659	  1.82682	  0.64831	 -0.00943	  3.16369	711.59003	 23.40	
 10.215	 47.354	  3.05239	  1.93005	  0.58901	  1.96817	  0.53542	 -0.01274	  3.16596	711.53998	 23.40	
 10.203	 56.908	  3.05059	  1.78742	  0.70144	  2.08984	  0.44162	 -0.01588	  3.16675	711.53003	 23.40	
 10.192	 66.322	  3.04797	  1.63442	  0.82798	  2.18233	  0.37083	 -0.02088	  3.16649	711.51001	 23.40	
 10.208	 75.751	  3.04423	  1.46855	  0.97205	  2.25162	  0.31664	 -0.02330	  3.16510	711.58002	 23.40	
 10.210	 85.199	  3.04428	  1.30095	  1.12852	  2.29022	  0.28897	 -0.02474	  3.16716	711.63000	 23.40	
 10.210	 94.801	  3.04013	  1.13063	  1.29446	  2.29616	  0.28036	 -0.03354	  3.16671	711.52002	 23.40	
 10.208	104.249	  3.03519	  0.96942	  1.46009	  2.27269	  0.29096	 -0.04026	  3.16637	711.46002	 23.40	
 10.192	113.678	  3.03177	  0.81782	  1.62578	  2.21514	  0.32628	 -0.04391	  3.16489	711.58002	 23.40	
 10.203	123.092	  3.02685	  0.68373	  1.78214	  2.13288	  0.38403	 -0.04658	  3.16414	711.08002	 23.40	
 10.215	132.646	  3.02698	  0.55950	  1.93512	  2.02357	  0.46454	 -0.04931	  3.16613	711.46997	 23.40	
 10.190	142.105	  3.02133	  0.45855	  2.06331	  1.88732	  0.56724	 -0.05220	  3.16352	711.40997	 23.40	
 10.194	151.526	  3.01895	  0.37779	  2.17046	  1.74125	  0.68477	 -0.05543	  3.16434	711.50000	 23.40	
 10.210	161.034	  3.01812	  0.31947	  2.25625	  1.58095	  0.82208	 -0.05863	  3.16576	711.46997	 23.40	
 10.191	170.497	  3.01586	  0.28221	  2.30821	  1.41240	  0.97227	 -0.06010	  3.16472	711.45001	 23.40	
 11.899	171.783	  2.94890	  0.09692	  2.44007	  1.36694	  0.91000	 -0.08621	  3.16545	711.46997	 23.40	
 11.890	163.610	  2.95246	  0.12856	  2.39287	  1.53806	  0.75657	 -0.08836	  3.16768	711.53003	 23.40	
 11.889	155.445	  2.95636	  0.18162	  2.31771	  1.70210	  0.61919	 -0.08785	  3.16688	711.51001	 23.40	
 11.909	147.299	  2.95642	  0.24832	  2.22181	  1.85943	  0.49285	 -0.08640	  3.16681	710.95001	 23.40	
 11.902	139.148	  2.95946	  0.33343	  2.10339	  2.00300	  0.38203	 -0.08344	  3.16578	711.47998	 23.40	
 11.894	130.867	  2.96031	  0.43786	  1.96359	  2.13370	  0.28481	 -0.07931	  3.16459	711.41998	 23.40	
 11.897	122.732	  2.96508	  0.56037	  1.81360	  2.24187	  0.21250	 -0.07577	  3.16557	711.52002	 23.40	
 11.903	114.597	  2.97108	  0.69546	  1.65578	  2.32648	  0.15921	 -0.07513	  3.16841	711.54999	 23.40	
 11.893	106.346	  2.97198	  0.84429	  1.48659	  2.38510	  0.12083	 -0.07163	  3.16482	711.42999	 23.40	
 11.892	 98.155	  2.97614	  1.00493	  1.31438	  2.42096	  0.09979	 -0.06841	  3.16411	711.47998	 23.40	
 11.900	 90.000	  2.97904	  1.17033	  1.14867	  2.42931	  0.09752	 -0.06092	  3.16527	711.47998	 23.40	
 11.892	 81.845	  2.98106	  1.33774	  0.98781	  2.40698	  0.11454	 -0.05590	  3.16498	711.48999	 23.40	
 11.893	 73.654	  2.98570	  1.50880	  0.83500	  2.36059	  0.14997	 -0.05228	  3.16546	711.46002	 23.40	
 11.903	 65.403	  2.98694	  1.67661	  0.69224	  2.28709	  0.20373	 -0.04935	  3.16489	711.52002	 23.40	
 11.897	 57.268	  2.99040	  1.83127	  0.56692	  2.19283	  0.27297	 -0.04612	  3.16532	711.46002	 23.40	
 11.894	 49.133	  2.99314	  1.97580	  0.45568	  2.07461	  0.36040	 -0.04311	  3.16586	711.48999	 23.40	
 11.902	 40.852	  2.99538	  2.10799	  0.35973	  1.93511	  0.46914	 -0.03843	  3.16658	711.52002	 23.40	
 11.909	 32.701	  2.99714	  2.21533	  0.28538	  1.78222	  0.59294	 -0.03704	  3.16637	711.52002	 23.40	
 11.889	 24.555	  3.00037	  2.29745	  0.23094	  1.62312	  0.72788	 -0.04104	  3.16649	711.44000	 23.40	
 11.890	 16.390	  2.99955	  2.35632	  0.19079	  1.45480	  0.87506	 -0.04214	  3.16655	711.53003	 23.40	
 11.899	  8.217	  2.99885	  2.39159	  0.17035	  1.28170	  1.03576	 -0.04640	  3.16617	711.56000	 23.40	
 11.900	  0.000	  2.99919	  2.39997	  0.16744	  1.11513	  1.20088	 -0.05070	  3.16801	711.52002	 23.40	
 11.899	 -8.217	  2.99552	  2.37779	  0.18174	  0.95193	  1.37051	 -0.05284	  3.16650	711.47998	 23.40	
 11.890	-16.390	  2.99419	  2.32802	  0.21851	  0.79841	  1.54168	 -0.06365	  3.16728	711.08002	 23.40	
 11.889	-24.555	  2.99088	  2.25521	  0.26683	  0.65846	  1.70246	 -0.06715	  3.16589	711.50000	 23.40	
 11.909	-32.701	  2.98685	  2.15807	  0.33114	  0.52747	  1.85635	 -0.07283	  3.16467	711.47998	 23.40	
 11.902	-40.852	  2.98549	  2.04079	  0.41791	  0.41365	  2.00201	 -0.07379	  3.16688	711.40997	 23.40	
 11.894	-49.133	  2.98340	  1.89923	  0.52685	  0.31682	  2.12949	 -0.07589	  3.16721	711.57001	 23.40	
 11.897	-57.268	  2.97874	  1.74627	  0.64687	  0.24067	  2.23141	 -0.07633	  3.16503	711.51001	 23.40	
 11.903	-65.403	  2.97549	  1.58683	  0.78036	  0.18233	  2.31279	 -0.07838	  3.16570	711.42999	 23.40	
 11.893	-73.654	  2.97212	  1.41743	  0.93018	  0.14228	  2.36900	 -0.07844	  3.16599	711.51001	 23.40	
 11.892	-81.845	  2.97283	  1.24717	  1.09232	  0.12066	  2.40280	 -0.07712	  3.16989	711.46002	 23.40	
 11.900	-90.000	  2.96849	  1.08164	  1.25479	  0.11393	  2.40559	 -0.07569	  3.16887	711.53003	 23.40	
 11.892	-98.155	  2.96412	  0.92144	  1.42293	  0.12880	  2.37983	 -0.07751	  3.16750	711.48999	 23.40	
 11.893	-106.346	  2.96151	  0.76822	  1.59192	  0.16149	  2.32780	 -0.08061	  3.16719	711.45001	 23.40	
 11.903	-114.597	  2.95649	  0.62624	  1.75483	  0.20935	  2.24957	 -0.08151	  3.16601	711.56000	 23.40	
 11.897	-122.732	  2.95543	  0.49971	  1.90893	  0.27680	  2.15080	 -0.08078	  3.16673	711.53003	 23.40	
 11.894	-130.867	  2.95140	  0.38555	  2.04955	  0.36109	  2.03020	 -0.07982	  3.16473	711.53998	 23.40	
 11.902	-139.148	  2.94874	  0.28830	  2.17781	  0.46610	  1.88950	 -0.08075	  3.16531	711.50000	 23.40	
 11.909	-147.299	  2.94932	  0.20894	  2.28469	  0.58641	  1.73656	 -0.08285	  3.16596	710.75000	 23.40	
 11.889	-155.445	  2.94988	  0.15263	  2.36805	  0.72327	  1.57552	 -0.08541	  3.16701	711.50000	 23.40	
 11.890	-163.610	  2.95030	  0.11183	  2.42513	  0.87216	  1.40856	 -0.08877	  3.16780	711.53003	 23.40	
 11.899	-171.783	  2.94824	  0.08918	  2.45678	  1.03159	  1.23991	 -0.08883	  3.16729	711.50000	 23.40	
 11.900	180.000	  2.94910	  0.08489	  2.46142	  1.19919	  1.07095	 -0.08808	  3.16560	711.48999	 23.40	
 13.600	180.000	  2.87203	 -0.09776	  2.58413	  1.14480	  1.00100	 -0.11278	  3.16710	711.25000	 23.40	
 13.608	-172.853	  2.86864	 -0.09531	  2.57974	  0.97891	  1.16397	 -0.11051	  3.16476	711.46002	 23.40	
 13.611	-165.583	  2.86750	 -0.07623	  2.55170	  0.81399	  1.33718	 -0.10867	  3.16524	711.58002	 23.40	
 13.601	-158.353	  2.87040	 -0.04153	  2.50271	  0.66548	  1.50653	 -0.10569	  3.16697	711.44000	 23.40	
 13.609	-151.210	  2.87023	  0.01019	  2.42639	  0.52682	  1.67201	 -0.10281	  3.16466	711.51001	 23.40	
 13.611	-143.999	  2.87151	  0.07522	  2.33275	  0.39874	  1.83338	 -0.09777	  3.16640	711.51001	 23.40	
 13.601	-136.825	  2.87286	  0.15681	  2.21879	  0.28735	  1.98193	 -0.09596	  3.16572	711.48999	 23.40	
 13.596	-129.640	  2.87633	  0.25551	  2.08824	  0.19333	  2.11766	 -0.09398	  3.16590	711.53003	 23.40	
 13.611	-122.431	  2.87860	  0.36439	  1.94434	  0.10755	  2.24135	 -0.09387	  3.16735	711.62000	 23.40	
 13.604	-115.211	  2.88067	  0.48909	  1.78777	  0.04045	  2.34486	 -0.09374	  3.16784	711.59003	 23.40	
 13.595	-108.042	  2.88452	  0.62522	  1.62515	 -0.00911	  2.42580	 -0.09304	  3.16821	711.53003	 23.40	
 13.607	-100.793	  2.88436	  0.77191	  1.45411	 -0.04715	  2.48424	 -0.09040	  3.16535	710.72998	 23.40	
 13.601	-93.617	  2.89085	  0.93091	  1.28384	 -0.06757	  2.52115	 -0.09059	  3.16757	711.54999	 23.40	
 13.601	-86.383	  2.89486	  1.09612	  1.11862	 -0.07016	  2.53242	 -0.09177	  3.16821	711.53003	 23.40	
 13.607	-79.207	  2.89648	  1.26611	  0.95432	 -0.05788	  2.51835	 -0.09366	  3.16651	711.63000	 23.40	
 13.595	-71.958	  2.90020	  1.43814	  0.79708	 -0.03105	  2.47895	 -0.09515	  3.16622	711.52002	 23.40	
 13.604	-64.789	  2.90520	  1.60501	  0.65330	  0.00716	  2.42248	 -0.09693	  3.16888	711.48999	 23.40	
 13.611	-57.569	  2.90262	  1.76601	  0.51634	  0.06246	  2.33404	 -0.09602	  3.16400	711.53998	 23.40	
 13.596	-50.360	  2.91029	  1.92412	  0.39911	  0.13767	  2.23137	 -0.09577	  3.16671	711.52002	 23.40	
 13.601	-43.175	  2.91387	  2.06755	  0.29166	  0.22622	  2.11117	 -0.09757	  3.16833	711.41998	 23.40	
 13.611	-36.001	  2.91421	  2.19463	  0.19933	  0.33014	  1.97114	 -0.09681	  3.16617	711.44000	 23.40	
 13.609	-28.790	  2.92027	  2.30733	  0.12504	  0.45326	  1.81818	 -0.09400	  3.16860	711.52002	 23.40	
 13.601	-21.647	  2.92458	  2.39551	  0.06813	  0.58618	  1.65770	 -0.09323	  3.16869	711.58002	 23.40	
 13.611	-14.417	  2.92198	  2.46187	  0.02315	  0.72781	  1.48951	 -0.08913	  3.16552	711.58002	 23.40	
 13.608	 -7.147	  2.92793	  2.50745	 -0.00456	  0.88617	  1.31797	 -0.08111	  3.16850	711.53003	 23.40	
 13.600	  0.000	  2.92877	  2.52428	 -0.01659	  1.04780	  1.15109	 -0.07848	  3.16733	711.62000	 23.40	
 13.608	  7.147	  2.92835	  2.51994	 -0.01686	  1.21272	  0.98559	 -0.07557	  3.16629	711.59003	 23.40	
 13.611	 14.417	  2.92966	  2.49145	 -0.00143	  1.38730	  0.82152	 -0.07368	  3.16615	711.63000	 23.40	
 13.601	 21.647	  2.93267	  2.43935	  0.03346	  1.56045	  0.67192	 -0.07247	  3.16938	711.53003	 23.40	
 13.609	 28.790	  2.93082	  2.36385	  0.08079	  1.72384	  0.53446	 -0.06900	  3.16721	711.48999	 23.40	
 13.611	 36.001	  2.92686	  2.26506	  0.14526	  1.88462	  0.40300	 -0.07027	  3.16674	711.47998	 23.40	
 13.601	 43.175	  2.92451	  2.14840	  0.22520	  2.03324	  0.28872	 -0.07151	  3.16535	711.52002	 23.40	
 13.596	 50.360	  2.92210	  2.01585	  0.31997	  2.16624	  0.19130	 -0.07741	  3.16616	711.53998	 23.40	
 13.611	 57.569	  2.92003	  1.86901	  0.42965	  2.28601	  0.10513	 -0.08240	  3.16773	711.46997	 23.40	
 13.604	 64.789	  2.91688	  1.70934	  0.55472	  2.38416	  0.03605	 -0.08428	  3.16620	711.51001	 23.40	
 13.595	 71.958	  2.91517	  1.54429	  0.69246	  2.46215	 -0.01693	 -0.08709	  3.16711	711.58002	 23.40	
 13.607	 79.207	  2.91157	  1.37138	  0.84071	  2.51804	 -0.05846	 -0.08958	  3.16867	711.58002	 23.40	
 13.601	 86.383	  2.90948	  1.20300	  0.99870	  2.54899	 -0.07839	 -0.09278	  3.16923	711.56000	 23.40	
 13.601	 93.617	  2.90587	  1.03315	  1.16371	  2.55495	 -0.08703	 -0.09897	  3.16782	711.47998	 23.40	
 13.607	100.793	  2.90103	  0.86961	  1.33140	  2.53658	 -0.07718	 -0.10429	  3.16702	711.52002	 23.40	
 13.595	108.042	  2.89967	  0.71365	  1.50370	  2.49440	 -0.05290	 -0.10694	  3.16770	710.78003	 23.40	
 13.604	115.211	  2.89578	  0.56985	  1.66887	  2.43078	 -0.01400	 -0.10830	  3.16746	711.53998	 23.40	
 13.611	122.431	  2.89170	  0.43559	  1.83254	  2.34192	  0.04117	 -0.10938	  3.16736	711.40997	 23.40	
 13.596	129.640	  2.89006	  0.31691	  1.98786	  2.23541	  0.11476	 -0.11051	  3.16904	711.59998	 23.40	
 13.601	136.825	  2.88382	  0.21071	  2.12588	  2.10872	  0.19806	 -0.11209	  3.16484	711.57001	 23.40	
 13.611	143.999	  2.88157	  0.12051	  2.25448	  1.96894	  0.30165	 -0.11527	  3.16664	710.73999	 23.40	
 13.609	151.210	  2.88046	  0.04584	  2.36451	  1.81360	  0.41998	 -0.11885	  3.16805	710.81000	 23.40	
 13.601	158.353	  2.87506	 -0.01246	  2.45015	  1.65329	  0.54666	 -0.11785	  3.16551	710.72998	 23.40	
 13.611	165.583	  2.87187	 -0.05958	  2.51852	  1.48412	  0.68678	 -0.11595	  3.16592	710.94000	 23.40	
 13.608	172.853	  2.87265	 -0.08548	  2.56519	  1.31285	  0.84315	 -0.11112	  3.16901	711.46997	 23.40	
 15.298	173.587	  2.78621	 -0.25917	  2.67450	  1.25178	  0.77069	 -0.13295	  3.16853	711.56000	 23.40	
 15.291	167.167	  2.78441	 -0.23515	  2.63307	  1.42242	  0.61733	 -0.13920	  3.16491	711.44000	 23.40	
 15.307	160.676	  2.78748	 -0.19612	  2.57186	  1.59335	  0.47585	 -0.14395	  3.16754	711.53998	 23.40	
 15.300	154.261	  2.78967	 -0.14567	  2.49214	  1.75867	  0.34445	 -0.14634	  3.16612	711.58002	 23.40	
 15.288	147.854	  2.79396	 -0.07917	  2.39070	  1.91621	  0.22621	 -0.14762	  3.16690	711.59998	 23.40	
 15.293	141.428	  2.79478	 -0.00319	  2.27387	  2.06644	  0.11664	 -0.14734	  3.16616	711.56000	 23.40	
 15.299	134.985	  2.80201	  0.08928	  2.14324	  2.20424	  0.02406	 -0.14485	  3.16854	711.59003	 23.40	
 15.305	128.583	  2.80137	  0.19240	  1.99765	  2.32436	 -0.05552	 -0.14195	  3.16473	711.50000	 23.40	
 15.309	122.142	  2.80556	  0.30866	  1.84343	  2.43268	 -0.12539	 -0.14262	  3.16658	711.40997	 23.40	
 15.304	115.711	  2.80901	  0.43905	  1.67864	  2.52224	 -0.18120	 -0.14382	  3.16777	711.50000	 23.40	
 15.297	109.291	  2.81234	  0.58052	  1.51077	  2.58815	 -0.21772	 -0.14388	  3.16507	711.42999	 23.40	
 15.293	102.897	  2.81714	  0.73061	  1.34377	  2.63613	 -0.24297	 -0.14212	  3.16758	711.50000	 23.40	
 15.293	 96.458	  2.82046	  0.89244	  1.17253	  2.66228	 -0.25762	 -0.13744	  3.16685	711.40002	 23.40	
 15.300	 90.000	  2.82493	  1.05610	  1.00713	  2.67075	 -0.26108	 -0.13315	  3.17005	711.41998	 23.40	
 15.293	 83.542	  2.82673	  1.22445	  0.84761	  2.64959	 -0.24503	 -0.12777	  3.16702	711.40997	 23.40	
 15.293	 77.103	  2.82985	  1.39754	  0.69178	  2.61071	 -0.21993	 -0.12537	  3.16587	711.51001	 23.40	
 15.297	 70.709	  2.83285	  1.56825	  0.54860	  2.55290	 -0.18166	 -0.12317	  3.16842	711.51001	 23.40	
 15.304	 64.289	  2.83775	  1.73473	  0.41722	  2.47408	 -0.12625	 -0.12182	  3.16982	711.50000	 23.40	
 15.309	 57.858	  2.83985	  1.89690	  0.29089	  2.37354	 -0.06109	 -0.11872	  3.17000	711.40002	 23.40	
 15.305	 51.417	  2.84321	  2.04404	  0.18467	  2.25716	  0.01987	 -0.11160	  3.16906	711.45001	 23.40	
 15.299	 45.015	  2.84686	  2.18063	  0.08971	  2.12320	  0.11381	 -0.10850	  3.16909	711.50000	 23.50	
 15.293	 38.572	  2.84618	  2.30091	  0.00974	  1.97829	  0.21740	 -0.10301	  3.16661	711.44000	 23.40	
 15.288	 32.146	  2.85053	  2.41047	 -0.05920	  1.82111	  0.33997	 -0.10277	  3.16840	711.34003	 23.40	
 15.300	 25.739	  2.85299	  2.49858	 -0.11396	  1.65624	  0.47258	 -0.10282	  3.16941	711.42999	 23.40	
 15.307	 19.324	  2.85002	  2.56194	 -0.15236	  1.48733	  0.61233	 -0.10139	  3.16409	711.35999	 23.40	
 15.291	 12.833	  2.85317	  2.61004	 -0.17818	  1.31385	  0.76940	 -0.10155	  3.16666	711.35999	 23.40	
 15.298	  6.413	  2.84996	  2.63455	 -0.19362	  1.14005	  0.92889	 -0.10532	  3.16654	711.38000	 23.40	
 15.300	  0.000	  2.85065	  2.63947	 -0.19393	  0.97769	  1.09246	 -0.10632	  3.16791	711.41998	 23.40	
 15.298	 -6.413	  2.84766	  2.62039	 -0.18197	  0.81536	  1.26026	 -0.10495	  3.16575	711.50000	 23.40	
 15.291	-12.833	  2.84783	  2.58247	 -0.15760	  0.65904	  1.43376	 -0.10771	  3.16923	711.44000	 23.40	
 15.307	-19.324	  2.84182	  2.52207	 -0.12519	  0.51193	  1.59930	 -0.11122	  3.16816	711.37000	 23.50	
 15.300	-25.739	  2.83957	  2.43919	 -0.07216	  0.37656	  1.76469	 -0.11377	  3.16685	711.33002	 23.50	
 15.288	-32.146	  2.83462	  2.33545	 -0.00579	  0.25313	  1.92264	 -0.11295	  3.16591	711.42999	 23.40	
 15.293	-38.572	  2.83362	  2.21732	  0.07376	  0.14151	  2.07154	 -0.11172	  3.16648	711.15997	 23.40	
 15.299	-45.015	  2.82971	  2.08259	  0.16619	  0.04484	  2.20561	 -0.10998	  3.16648	711.37000	 23.40	
 15.305	-51.417	  2.82624	  1.93713	  0.27029	 -0.04022	  2.32687	 -0.10725	  3.16619	711.46002	 23.40	
 15.309	-57.858	  2.82165	  1.77918	  0.38767	 -0.10928	  2.43014	 -0.10647	  3.16554	711.46002	 23.40	
 15.304	-64.289	  2.82127	  1.61400	  0.52412	 -0.16050	  2.51663	 -0.10227	  3.16719	711.41998	 23.40	
 15.297	-70.709	  2.81793	  1.44798	  0.66589	 -0.19833	  2.57906	 -0.10341	  3.16728	711.51001	 23.50	
 15.293	-77.103	  2.81400	  1.27900	  0.81545	 -0.22569	  2.61971	 -0.10100	  3.16591	711.39001	 23.50	
 15.293	-83.542	  2.80878	  1.10775	  0.97450	 -0.24234	  2.63976	 -0.09884	  3.16501	711.40997	 23.40	
 15.300	-90.000	  2.80755	  0.94288	  1.14042	 -0.24339	  2.64135	 -0.09832	  3.16617	711.38000	 23.40	
 15.293	-96.458	  2.80513	  0.78229	  1.30840	 -0.23339	  2.61989	 -0.09685	  3.16784	711.41998	 23.40	
 15.293	-102.897	  2.80139	  0.62711	  1.48117	 -0.20915	  2.57437	 -0.09611	  3.16642	711.42999	 23.40	
 15.297	-109.291	  2.79691	  0.48549	  1.64555	 -0.17358	  2.51197	 -0.09814	  3.16728	711.45001	 23.50	
 15.304	-115.711	  2.79780	  0.35216	  1.81083	 -0.12501	  2.43084	 -0.10095	  3.16952	711.42999	 23.50	
 15.309	-122.142	  2.79084	  0.23165	  1.96634	 -0.06011	  2.32497	 -0.10187	  3.16653	711.47998	 23.40	
 15.305	-128.583	  2.78821	  0.12443	  2.11225	  0.02060	  2.20191	 -0.10676	  3.16484	711.46002	 23.50	
 15.299	-134.985	  2.79104	  0.03070	  2.25067	  0.11362	  2.07044	 -0.10543	  3.16913	711.57001	 23.50	
 15.293	-141.428	  2.78525	 -0.05158	  2.36530	  0.21830	  1.91972	 -0.10951	  3.16453	711.52002	 23.50	
 15.288	-147.854	  2.78488	 -0.12368	  2.47145	  0.33295	  1.76563	 -0.11273	  3.16722	710.81000	 23.50	
 15.300	-154.261	  2.78488	 -0.17955	  2.55825	  0.46377	  1.60257	 -0.11863	  3.16827	711.31000	 23.50	
 15.307	-160.676	  2.78159	 -0.22288	  2.62186	  0.60285	  1.43104	 -0.12088	  3.16638	711.53003	 23.50	
 15.291	-167.167	  2.78042	 -0.25041	  2.66493	  0.75530	  1.26279	 -0.12538	  3.16461	711.51001	 23.50	
 15.298	-173.587	  2.78128	 -0.26809	  2.68920	  0.91699	  1.09292	 -0.13056	  3.16746	711.56000	 23.50	
 15.300	180.000	  2.78437	 -0.27174	  2.69413	  1.08339	  0.92768	 -0.12940	  3.16877	711.45001	 23.50	
 17.000	180.000	  2.68701	 -0.43408	  2.79162	  1.01863	  0.85301	 -0.14484	  3.16914	710.92999	 23.50	
 16.990	-174.179	  2.68356	 -0.43262	  2.78811	  0.85325	  1.01359	 -0.14156	  3.16550	710.70001	 23.50	
 17.009	-168.383	  2.68323	 -0.42014	  2.76946	  0.69130	  1.18212	 -0.13748	  3.16765	711.50000	 23.50	
 17.000	-162.596	  2.68456	 -0.39458	  2.73073	  0.54472	  1.34909	 -0.13161	  3.16836	711.47998	 23.50	
 16.990	-156.759	  2.68299	 -0.35768	  2.67023	  0.40111	  1.51745	 -0.12667	  3.16402	711.44000	 23.50	
 16.995	-150.919	  2.68506	 -0.30955	  2.59505	  0.26989	  1.68662	 -0.12142	  3.16719	711.51001	 23.50	
 16.988	-145.161	  2.69155	 -0.25127	  2.50482	  0.15254	  1.84622	 -0.11604	  3.17088	711.53998	 23.50	
 17.014	-139.343	  2.68695	 -0.18211	  2.39130	  0.04233	  1.99686	 -0.11578	  3.16630	711.50000	 23.50	
 17.007	-133.546	  2.69155	 -0.09605	  2.26841	 -0.05410	  2.14267	 -0.11234	  3.16672	711.40997	 23.50	
 17.001	-127.699	  2.69743	 -0.00176	  2.13198	 -0.14018	  2.27991	 -0.10978	  3.17097	711.42999	 23.50	
 17.006	-121.937	  2.69500	  0.10070	  1.98186	 -0.21820	  2.39743	 -0.10515	  3.16720	711.44000	 23.50	
 17.002	-116.134	  2.70042	  0.22006	  1.82552	 -0.27824	  2.50108	 -0.09868	  3.16747	711.46002	 23.50	
 17.001	-110.310	  2.70220	  0.34807	  1.66269	 -0.32776	  2.58773	 -0.09998	  3.16712	711.41998	 23.50	
 16.988	-104.517	  2.70566	  0.48501	  1.49711	 -0.36554	  2.65444	 -0.10152	  3.16714	710.73999	 23.50	
 17.008	-98.662	  2.70809	  0.63172	  1.32686	 -0.39546	  2.70785	 -0.10247	  3.16790	711.37000	 23.50	
 16.996	-92.909	  2.70810	  0.78376	  1.15794	 -0.40926	  2.73394	 -0.09990	  3.16367	711.41998	 23.50	
 16.996	-87.091	  2.71347	  0.94623	  0.99237	 -0.41399	  2.74712	 -0.10175	  3.16611	711.44000	 23.50	
 17.012	-81.253	  2.71747	  1.11456	  0.83027	 -0.40864	  2.74026	 -0.10400	  3.16835	711.44000	 23.50	
 16.988	-75.483	  2.72128	  1.28384	  0.67540	 -0.38781	  2.71096	 -0.10451	  3.16707	711.45001	 23.50	
 17.001	-69.690	  2.72489	  1.45228	  0.53081	 -0.35993	  2.66407	 -0.10719	  3.16653	711.40997	 23.40	
 17.002	-63.866	  2.73052	  1.62107	  0.39219	 -0.31978	  2.60017	 -0.10927	  3.17038	711.48999	 23.50	
 17.006	-58.063	  2.72918	  1.78239	  0.25951	 -0.27229	  2.51429	 -0.11178	  3.16675	710.73999	 23.50	
 17.001	-52.301	  2.73235	  1.93778	  0.14479	 -0.21282	  2.41391	 -0.11414	  3.16738	710.72998	 23.50	
 17.007	-46.454	  2.73554	  2.08946	  0.03459	 -0.13803	  2.29504	 -0.11710	  3.16855	711.15002	 23.50	
 17.014	-40.657	  2.74159	  2.23101	 -0.05729	 -0.04766	  2.16396	 -0.11852	  3.17095	711.44000	 23.50	
 16.988	-34.839	  2.74450	  2.35580	 -0.13553	  0.05626	  2.01975	 -0.12236	  3.16951	711.52002	 23.50	
 16.995	-29.081	  2.74419	  2.46252	 -0.20614	  0.16815	  1.86384	 -0.12496	  3.16663	710.90997	 23.50	
 16.990	-23.241	  2.75034	  2.55919	 -0.26016	  0.29849	  1.70315	 -0.12582	  3.16954	710.77002	 23.50	
 17.000	-17.404	  2.75325	  2.63415	 -0.30463	  0.43664	  1.53568	 -0.12891	  3.16848	710.84998	 23.50	
 17.009	-11.617	  2.75590	  2.69122	 -0.33445	  0.58116	  1.37029	 -0.12574	  3.16891	710.96002	 23.50	
 16.990	 -5.821	  2.75744	  2.72552	 -0.35378	  0.73746	  1.19963	 -0.12875	  3.16726	711.48999	 23.50	
 17.000	  0.000	  2.76040	  2.74371	 -0.36457	  0.89904	  1.03184	 -0.12734	  3.16778	711.21002	 23.50	
 16.990	  5.821	  2.76325	  2.74112	 -0.36441	  1.06393	  0.86724	 -0.12988	  3.16751	710.69000	 23.50	
 17.009	 11.617	  2.76144	  2.72089	 -0.35794	  1.23337	  0.70445	 -0.13284	  3.16745	710.66998	 23.50	
 17.000	 17.404	  2.76287	  2.68128	 -0.33596	  1.40453	  0.55446	 -0.13399	  3.16877	710.72998	 23.50	
 16.990	 23.241	  2.76247	  2.62001	 -0.30131	  1.57361	  0.41068	 -0.13661	  3.16814	710.63000	 23.50	
 16.995	 29.081	  2.76172	  2.54131	 -0.25358	  1.74306	  0.27862	 -0.13569	  3.16868	711.10999	 23.50	
 16.988	 34.839	  2.76152	  2.44665	 -0.19444	  1.90373	  0.15998	 -0.13770	  3.17022	710.81000	 23.50	
 17.014	 40.657	  2.75686	  2.33395	 -0.12683	  2.05625	  0.04403	 -0.14160	  3.16897	710.76001	 23.50	
 17.007	 46.454	  2.74941	  2.20226	 -0.04400	  2.19814	 -0.05600	 -0.14692	  3.16476	710.85999	 23.50	
 17.001	 52.301	  2.75141	  2.06336	  0.05306	  2.33201	 -0.14247	 -0.15122	  3.16804	710.79999	 23.50	
 17.006	 58.063	  2.74498	  1.91182	  0.15722	  2.44713	 -0.21952	 -0.15868	  3.16839	710.69000	 23.50	
 17.002	 63.866	  2.74552	  1.75319	  0.27859	  2.54805	 -0.28055	 -0.16112	  3.17016	710.71997	 23.50	
 17.001	 69.690	  2.74190	  1.58628	  0.40826	  2.62873	 -0.33202	 -0.16075	  3.16806	710.71002	 23.50	
 16.988	 75.483	  2.74222	  1.41963	  0.54754	  2.69448	 -0.37168	 -0.16211	  3.17032	710.71002	 23.50	
 17.012	 81.253	  2.73430	  1.24903	  0.69437	  2.73860	 -0.40148	 -0.16717	  3.16660	711.04999	 23.50	
 16.996	 87.091	  2.73488	  1.08021	  0.84993	  2.76561	 -0.41832	 -0.16904	  3.16983	711.34003	 23.50	
 16.996	 92.909	  2.72701	  0.91189	  1.01304	  2.76709	 -0.42107	 -0.17387	  3.16605	710.67999	 23.50	
 17.008	 98.662	  2.72647	  0.75377	  1.17920	  2.75730	 -0.41567	 -0.17799	  3.16761	710.77002	 23.50	
 16.988	104.517	  2.72178	  0.59932	  1.34860	  2.72155	 -0.39759	 -0.17873	  3.16501	711.46997	 23.50	
 17.001	110.310	  2.71777	  0.45467	  1.51406	  2.67112	 -0.36899	 -0.17952	  3.16491	711.31000	 23.50	
 17.002	116.134	  2.71445	  0.31794	  1.68034	  2.60270	 -0.33270	 -0.18001	  3.16625	711.58002	 23.50	
 17.006	121.937	  2.71039	  0.19106	  1.84390	  2.51511	 -0.28157	 -0.17916	  3.16604	711.59998	 23.50	
 17.001	127.699	  2.70834	  0.07857	  1.99738	  2.41100	 -0.21855	 -0.17890	  3.16757	711.62000	 23.50	
 17.007	133.546	  2.70492	 -0.02717	  2.14800	  2.29117	 -0.14413	 -0.17812	  3.16872	710.73999	 23.50	
 17.014	139.343	  2.69981	 -0.12108	  2.28273	  2.15598	 -0.05831	 -0.17716	  3.16560	710.84003	 23.50	
 16.988	145.161	  2.69711	 -0.19886	  2.40548	  2.01153	  0.04041	 -0.17748	  3.16770	710.89001	 23.50	
 16.995	150.919	  2.69585	 -0.26744	  2.51412	  1.85761	  0.15071	 -0.17531	  3.16804	711.21997	 23.50	
 16.990	156.759	  2.69484	 -0.32149	  2.60820	  1.69469	  0.27647	 -0.17053	  3.16930	711.39001	 23.50	
 17.000	162.596	  2.69223	 -0.36627	  2.68217	  1.52829	  0.40832	 -0.16451	  3.16904	711.57001	 23.50	
 17.009	168.383	  2.68770	 -0.40194	  2.73727	  1.35900	  0.54519	 -0.15733	  3.16722	711.65997	 23.50	
 16.990	174.179	  2.68703	 -0.42367	  2.77274	  1.18732	  0.69550	 -0.14862	  3.16830	710.78003	 23.50	
 18.709	174.675	  2.57688	 -0.59542	  2.86472	  1.11211	  0.61007	 -0.16320	  3.16800	711.57001	 23.50	
 18.703	169.441	  2.57624	 -0.57695	  2.83009	  1.28030	  0.46302	 -0.17129	  3.16587	711.40002	 23.50	
 18.691	164.085	  2.58068	 -0.54523	  2.77765	  1.45289	  0.32181	 -0.17958	  3.16850	711.37000	 23.50	
 18.706	158.818	  2.58356	 -0.50615	  2.70902	  1.61729	  0.19255	 -0.18702	  3.16779	710.76001	 23.50	
 18.695	153.537	  2.58823	 -0.45554	  2.62631	  1.78280	  0.07261	 -0.19400	  3.16919	710.69000	 23.50	
 18.704	148.255	  2.59000	 -0.39762	  2.52415	  1.94025	 -0.04100	 -0.19905	  3.16688	710.72998	 23.50	
 18.698	142.952	  2.59174	 -0.32663	  2.40906	  2.08903	 -0.14180	 -0.20275	  3.16587	710.71997	 23.50	
 18.699	137.625	  2.59720	 -0.24534	  2.28251	  2.23376	 -0.23466	 -0.20638	  3.16986	711.00000	 23.50	
 18.705	132.343	  2.60010	 -0.15206	  2.14263	  2.36609	 -0.31535	 -0.20995	  3.16762	710.71997	 23.50	
 18.713	127.067	  2.60194	 -0.05246	  1.99396	  2.48190	 -0.38478	 -0.21044	  3.16634	711.52002	 23.50	
 18.700	121.794	  2.60770	  0.06342	  1.83703	  2.58577	 -0.44186	 -0.21177	  3.16791	710.88000	 23.50	
 18.698	116.504	  2.61129	  0.18298	  1.67740	  2.67501	 -0.49220	 -0.21664	  3.16865	711.21002	 23.50	
 18.707	111.165	  2.61186	  0.31726	  1.50736	  2.74748	 -0.53315	 -0.21551	  3.16785	711.45001	 23.50	
 18.690	105.863	  2.61654	  0.45817	  1.34238	  2.80117	 -0.55854	 -0.21539	  3.16662	711.54999	 23.50	
 18.696	100.583	  2.61850	  0.60501	  1.17522	  2.83810	 -0.57970	 -0.21540	  3.16624	711.50000	 23.50	
 18.700	 95.309	  2.62069	  0.76290	  1.01022	  2.85671	 -0.58761	 -0.21536	  3.16453	711.37000	 23.50	
 18.700	 90.000	  2.62631	  0.92646	  0.84813	  2.86183	 -0.58665	 -0.21172	  3.16847	711.52002	 23.50	
 18.700	 84.691	  2.62914	  1.09119	  0.68971	  2.84788	 -0.57908	 -0.20791	  3.16762	711.20001	 23.50	
 18.696	 79.417	  2.63138	  1.26063	  0.54152	  2.81203	 -0.55439	 -0.20206	  3.16482	710.73999	 23.50	
 18.690	 74.137	  2.63703	  1.42926	  0.40130	  2.76454	 -0.52487	 -0.20033	  3.16864	710.77002	 23.50	
 18.707	 68.835	  2.64000	  1.59781	  0.26553	  2.69733	 -0.48518	 -0.19786	  3.16874	711.48999	 23.50	
 18.698	 63.496	  2.64440	  1.76485	  0.14394	  2.61154	 -0.42931	 -0.19446	  3.16837	711.45001	 23.50	
 18.700	 58.206	  2.64878	  1.92652	  0.02808	  2.51306	 -0.37119	 -0.19366	  3.17066	710.87000	 23.50	
 18.713	 52.933	  2.65067	  2.07555	 -0.07484	  2.40073	 -0.30060	 -0.19333	  3.17091	710.84003	 23.50	
 18.705	 47.657	  2.65326	  2.21667	 -0.16853	  2.27328	 -0.22145	 -0.18535	  3.16964	710.97998	 23.50	
 18.699	 42.375	  2.65716	  2.34752	 -0.24919	  2.13155	 -0.12648	 -0.18061	  3.16831	711.58002	 23.50	
 18.698	 37.048	  2.65925	  2.46666	 -0.32280	  1.97980	 -0.02122	 -0.17533	  3.16717	711.53003	 23.50	
 18.704	 31.745	  2.66096	  2.56983	 -0.38264	  1.82457	  0.09131	 -0.17080	  3.16955	710.78003	 23.50	
 18.695	 26.463	  2.66462	  2.65673	 -0.43316	  1.66188	  0.21510	 -0.16942	  3.17001	711.42999	 23.50	
 18.706	 21.182	  2.66417	  2.72696	 -0.47105	  1.49063	  0.35035	 -0.16610	  3.16702	711.60999	 23.50	
 18.691	 15.915	  2.66700	  2.78214	 -0.49940	  1.32477	  0.49352	 -0.16022	  3.17085	710.79999	 23.50	
 18.703	 10.559	  2.66501	  2.82035	 -0.52266	  1.15202	  0.64322	 -0.15534	  3.16937	710.78003	 23.50	
 18.709	  5.325	  2.66394	  2.83840	 -0.52919	  0.98430	  0.80190	 -0.15635	  3.16986	710.75000	 23.50	
 18.700	  0.000	  2.66211	  2.83821	 -0.52987	  0.82148	  0.96262	 -0.15027	  3.16924	711.29999	 23.50	
 18.709	 -5.325	  2.65682	  2.82359	 -0.52353	  0.65887	  1.12780	 -0.14479	  3.16862	711.13000	 23.50	
 18.703	-10.559	  2.65493	  2.79014	 -0.50568	  0.50580	  1.29685	 -0.14369	  3.16967	710.69000	 23.50	
 18.691	-15.915	  2.65230	  2.73500	 -0.47755	  0.35745	  1.46545	 -0.13840	  3.16762	710.70001	 23.50	
 18.706	-21.182	  2.64793	  2.66682	 -0.44359	  0.21578	  1.63083	 -0.13513	  3.16888	710.78998	 23.50	
 18.695	-26.463	  2.64481	  2.58103	 -0.39445	  0.08949	  1.79491	 -0.13392	  3.16916	711.59998	 23.50	
 18.704	-31.745	  2.64486	  2.47802	 -0.33177	 -0.02521	  1.95351	 -0.12867	  3.17103	711.63000	 23.50	
 18.698	-37.048	  2.63955	  2.35852	 -0.26046	 -0.13094	  2.10196	 -0.12280	  3.16644	710.84003	 23.50	
 18.699	-42.375	  2.63715	  2.22921	 -0.17934	 -0.22454	  2.24526	 -0.12134	  3.16953	710.82001	 23.50	
 18.705	-47.657	  2.63272	  2.08560	 -0.08387	 -0.30418	  2.37377	 -0.11889	  3.16776	710.79999	 23.50	
 18.713	-52.933	  2.63164	  1.93627	  0.02326	 -0.37014	  2.48687	 -0.11318	  3.16738	710.82001	 23.50	
 18.700	-58.206	  2.63024	  1.78179	  0.13582	 -0.42563	  2.58803	 -0.11402	  3.16877	710.75000	 23.50	
 18.698	-63.496	  2.62530	  1.61934	  0.26476	 -0.47330	  2.67201	 -0.11439	  3.16733	711.51001	 23.50	
 18.707	-68.835	  2.62402	  1.45192	  0.40032	 -0.51297	  2.74386	 -0.11148	  3.17082	710.78998	 23.50	
 18.690	-74.137	  2.61934	  1.28339	  0.54215	 -0.54278	  2.79148	 -0.10631	  3.16660	711.53998	 23.50	
 18.696	-79.417	  2.61523	  1.11393	  0.68929	 -0.56578	  2.82641	 -0.10850	  3.16888	710.79999	 23.50	
 18.700	-84.691	  2.61273	  0.94845	  0.84843	 -0.57578	  2.84191	 -0.10880	  3.16934	710.96002	 23.50	
 18.700	-90.000	  2.60769	  0.78646	  1.00588	 -0.57814	  2.83904	 -0.10267	  3.16751	711.52002	 23.50	
 18.700	-95.309	  2.60468	  0.62929	  1.17092	 -0.57096	  2.81981	 -0.10319	  3.16827	711.54999	 23.50	
 18.696	-100.583	  2.60177	  0.48073	  1.33827	 -0.55072	  2.78243	 -0.10608	  3.16845	711.54999	 23.50	
 18.690	-105.863	  2.60349	  0.34164	  1.50717	 -0.52080	  2.72787	 -0.10428	  3.17071	711.13000	 23.50	
 18.707	-111.165	  2.59528	  0.20501	  1.67204	 -0.48421	  2.65325	 -0.10511	  3.16749	711.46002	 23.50	
 18.698	-116.504	  2.59183	  0.07976	  1.83440	 -0.43451	  2.56351	 -0.10354	  3.16773	710.64001	 23.50	
 18.700	-121.794	  2.59192	 -0.03112	  1.98991	 -0.37546	  2.46115	 -0.10816	  3.16899	710.70001	 23.50	
 18.713	-127.067	  2.58833	 -0.13406	  2.13927	 -0.30528	  2.34296	 -0.10972	  3.16974	710.78003	 23.50	
 18.705	-132.343	  2.58427	 -0.22888	  2.27648	 -0.22817	  2.21320	 -0.11532	  3.16915	710.67999	 23.50	
 18.699	-137.625	  2.58225	 -0.30917	  2.40526	 -0.13281	  2.06960	 -0.11605	  3.16849	710.65002	 23.50	
 18.698	-142.952	  2.58216	 -0.38059	  2.52067	 -0.02803	  1.91825	 -0.12175	  3.16841	710.85999	 23.50	
 18.704	-148.255	  2.57894	 -0.44259	  2.61917	  0.08337	  1.75932	 -0.12582	  3.16800	711.44000	 23.50	
 18.695	-153.537	  2.57811	 -0.49453	  2.70537	  0.20518	  1.59763	 -0.13068	  3.16852	711.21997	 23.50	
 18.706	-158.818	  2.57558	 -0.53810	  2.77517	  0.33520	  1.42856	 -0.13604	  3.16744	711.46997	 23.50	
 18.691	-164.085	  2.57803	 -0.56887	  2.82857	  0.47878	  1.26078	 -0.14012	  3.17019	711.17999	 23.50	
 18.703	-169.441	  2.57302	 -0.59041	  2.86084	  0.62492	  1.09224	 -0.14243	  3.16573	711.48999	 23.50	
 18.709	-174.675	  2.57439	 -0.60493	  2.88158	  0.78192	  0.92565	 -0.14799	  3.16869	710.81000	 23.50	
 18.700	180.000	  2.57578	 -0.60419	  2.88036	  0.94524	  0.76595	 -0.15617	  3.16831	711.38000	 23.50	
 20.400	180.000	  2.45540	 -0.78892	  2.95971	  0.86225	  0.66690	 -0.16512	  3.17037	711.12000	 23.50	
 20.401	-175.153	  2.45439	 -0.78655	  2.95949	  0.70051	  0.82728	 -0.15762	  3.16955	710.90002	 23.50	
 20.407	-170.264	  2.45460	 -0.77783	  2.94561	  0.54298	  0.99438	 -0.14513	  3.17087	711.65002	 23.50	
 20.410	-165.423	  2.45029	 -0.75886	  2.91090	  0.39577	  1.15600	 -0.14065	  3.16575	711.41998	 23.50	
 20.392	-160.496	  2.45661	 -0.72534	  2.86507	  0.25694	  1.32914	 -0.13481	  3.16831	711.03003	 23.50	
 20.401	-155.705	  2.45384	 -0.69477	  2.80240	  0.12002	  1.49220	 -0.12953	  3.16838	710.79999	 23.50	
 20.405	-150.835	  2.45656	 -0.64487	  2.72432	  0.00058	  1.65733	 -0.12501	  3.16772	710.76001	 23.50	
 20.397	-145.903	  2.45953	 -0.58773	  2.63012	 -0.11567	  1.82239	 -0.12246	  3.16776	711.17999	 23.50	
 20.392	-141.062	  2.46375	 -0.52421	  2.52510	 -0.22121	  1.98033	 -0.12123	  3.17155	711.15002	 23.50	
 20.396	-136.227	  2.46345	 -0.45466	  2.40697	 -0.31759	  2.12536	 -0.11780	  3.16971	710.76001	 23.50	
 20.408	-131.372	  2.46645	 -0.37521	  2.27692	 -0.40587	  2.26523	 -0.10872	  3.16921	710.67999	 23.50	
 20.410	-126.511	  2.46814	 -0.28103	  2.13491	 -0.47902	  2.39480	 -0.11138	  3.16791	710.78003	 23.50	
 20.400	-121.604	  2.46991	 -0.17842	  1.98407	 -0.54791	  2.51445	 -0.10756	  3.16806	710.92999	 23.50	
 20.403	-116.741	  2.47490	 -0.06727	  1.82870	 -0.60433	  2.61990	 -0.10542	  3.17012	710.78998	 23.50	
 20.413	-111.900	  2.47563	  0.05047	  1.66787	 -0.65305	  2.70970	 -0.09890	  3.16934	711.44000	 23.50	
 20.398	-107.004	  2.48221	  0.18172	  1.50381	 -0.69037	  2.78463	 -0.10527	  3.16999	711.46997	 23.50	
 20.394	-102.132	  2.48312	  0.31802	  1.33600	 -0.71681	  2.84047	 -0.10312	  3.16629	711.57001	 23.50	
 20.403	-97.332	  2.48834	  0.46196	  1.17467	 -0.73739	  2.88584	 -0.10407	  3.16915	711.56000	 23.50	
 20.392	-92.440	  2.49272	  0.61622	  1.01030	 -0.74743	  2.91267	 -0.10368	  3.16933	711.52002	 23.50	
 20.392	-87.560	  2.49468	  0.77262	  0.84811	 -0.75050	  2.92173	 -0.10855	  3.16756	711.56000	 23.50	
 20.403	-82.668	  2.49866	  0.93644	  0.68898	 -0.74737	  2.91899	 -0.10737	  3.16959	711.46997	 23.50	
 20.394	-77.868	  2.50094	  1.10014	  0.53799	 -0.73315	  2.89681	 -0.10627	  3.16697	711.56000	 23.50	
 20.398	-72.996	  2.50541	  1.26890	  0.39398	 -0.71215	  2.86253	 -0.10557	  3.17086	711.29999	 23.50	
 20.413	-68.100	  2.50556	  1.43445	  0.25419	 -0.68334	  2.80837	 -0.11394	  3.16795	710.91998	 23.50	
 20.403	-63.259	  2.50948	  1.60140	  0.12446	 -0.64241	  2.73856	 -0.11028	  3.16810	711.51001	 23.50	
 20.400	-58.396	  2.51478	  1.76445	  0.00549	 -0.59331	  2.65411	 -0.11225	  3.16891	710.84003	 23.50	
 20.410	-53.489	  2.51854	  1.92448	 -0.10998	 -0.53607	  2.55274	 -0.11818	  3.16897	711.56000	 23.50	
 20.408	-48.628	  2.51776	  2.07573	 -0.21506	 -0.47285	  2.43670	 -0.11719	  3.16633	711.50000	 23.50	
 20.396	-43.773	  2.52213	  2.21675	 -0.30212	 -0.39767	  2.31407	 -0.12113	  3.16737	711.40997	 23.50	
 20.392	-38.938	  2.52516	  2.35002	 -0.38499	 -0.31305	  2.17828	 -0.12425	  3.16783	710.72998	 23.50	
 20.397	-34.097	  2.52891	  2.47147	 -0.45792	 -0.22016	  2.03225	 -0.12831	  3.16732	710.65002	 23.50	
 20.405	-29.165	  2.52935	  2.58297	 -0.52183	 -0.11114	  1.87459	 -0.13545	  3.16622	710.75000	 23.50	
 20.401	-24.295	  2.53135	  2.67815	 -0.57670	  0.00235	  1.71419	 -0.13853	  3.16705	710.70001	 23.50	
 20.392	-19.504	  2.53658	  2.75869	 -0.61864	  0.13223	  1.55216	 -0.14273	  3.16668	710.71997	 23.50	
 20.410	-14.577	  2.54069	  2.82612	 -0.65434	  0.27362	  1.38112	 -0.15115	  3.16837	710.87000	 23.50	
 20.407	 -9.736	  2.54438	  2.87434	 -0.67757	  0.41934	  1.21969	 -0.15378	  3.17023	710.75000	 23.50	
 20.401	 -4.847	  2.54717	  2.90589	 -0.69296	  0.57351	  1.05090	 -0.15584	  3.16859	710.67999	 23.50	
 20.400	  0.000	  2.55051	  2.92080	 -0.70134	  0.73007	  0.88636	 -0.16408	  3.17031	710.78003	 23.50	
 20.401	  4.847	  2.55096	  2.91905	 -0.70164	  0.88925	  0.72653	 -0.16854	  3.16792	710.78998	 23.50	
 20.407	  9.736	  2.55162	  2.90385	 -0.69386	  1.05797	  0.56650	 -0.17235	  3.16745	711.44000	 23.50	
 20.410	 14.577	  2.55415	  2.87310	 -0.67797	  1.22531	  0.41901	 -0.17955	  3.16966	711.53998	 23.50	
 20.392	 19.504	  2.55448	  2.82232	 -0.65262	  1.39479	  0.27550	 -0.18406	  3.16831	711.40997	 23.50	
 20.401	 24.295	  2.54987	  2.75926	 -0.62231	  1.56056	  0.13920	 -0.19043	  3.16808	710.85999	 23.50	
 20.405	 29.165	  2.54980	  2.67977	 -0.57906	  1.72546	  0.01460	 -0.19961	  3.16874	710.79999	 23.50	
 20.397	 34.097	  2.54626	  2.58027	 -0.52320	  1.88758	 -0.10070	 -0.20329	  3.16530	710.71997	 23.50	
 20.392	 38.938	  2.54572	  2.47393	 -0.46488	  2.04418	 -0.21044	 -0.20711	  3.16897	711.47998	 23.50	
 20.396	 43.773	  2.54128	  2.35162	 -0.39459	  2.18998	 -0.30776	 -0.21119	  3.16847	711.37000	 23.50	
 20.408	 48.628	  2.53702	  2.21803	 -0.31222	  2.32513	 -0.39296	 -0.21712	  3.16589	711.38000	 23.50	
 20.410	 53.489	  2.53495	  2.07408	 -0.21854	  2.45292	 -0.47002	 -0.22229	  3.16756	711.41998	 23.50	
 20.400	 58.396	  2.53337	  1.92096	 -0.11820	  2.56938	 -0.54093	 -0.22278	  3.17017	711.35999	 23.50	
 20.403	 63.259	  2.52593	  1.75990	 -0.00954	  2.66815	 -0.60224	 -0.22566	  3.16721	711.53003	 23.50	
 20.413	 68.100	  2.52303	  1.59495	  0.10725	  2.75406	 -0.65429	 -0.22896	  3.16842	711.40997	 23.50	
 20.398	 72.996	  2.51923	  1.42481	  0.23926	  2.82345	 -0.69369	 -0.22695	  3.16672	710.65997	 23.50	
 20.394	 77.868	  2.51615	  1.25698	  0.37559	  2.87787	 -0.72699	 -0.23195	  3.16748	710.78003	 23.50	
 20.403	 82.668	  2.51217	  1.08986	  0.51777	  2.91609	 -0.75140	 -0.23625	  3.16765	710.70001	 23.50	
 20.392	 87.560	  2.50806	  0.92236	  0.67074	  2.93424	 -0.76300	 -0.23951	  3.16513	710.69000	 23.50	
 20.392	 92.440	  2.50798	  0.76164	  0.82905	  2.94392	 -0.76812	 -0.23928	  3.16733	710.75000	 23.50	
 20.403	 97.332	  2.50171	  0.59757	  0.99167	  2.93344	 -0.76716	 -0.24009	  3.16592	710.75000	 23.50	
 20.394	102.132	  2.49906	  0.44827	  1.15701	  2.90757	 -0.75415	 -0.24141	  3.16638	710.79999	 23.50	
 20.398	107.004	  2.49362	  0.30355	  1.32056	  2.86345	 -0.73410	 -0.24006	  3.16332	710.78998	 23.50	
 20.413	111.900	  2.48902	  0.16207	  1.48902	  2.80948	 -0.70885	 -0.23946	  3.16610	711.32001	 23.50	
 20.403	116.741	  2.48976	  0.03589	  1.65717	  2.73557	 -0.66906	 -0.24123	  3.16803	711.26001	 23.50	
 20.400	121.604	  2.48744	 -0.08267	  1.81702	  2.64763	 -0.62129	 -0.23636	  3.16732	710.64001	 23.50	
 20.410	126.511	  2.48308	 -0.19488	  1.97540	  2.54301	 -0.56474	 -0.23135	  3.16718	711.21002	 23.50	
 20.408	131.372	  2.47610	 -0.29750	  2.12492	  2.42533	 -0.50149	 -0.22533	  3.16576	710.76001	 23.50	
 20.396	136.227	  2.47297	 -0.38980	  2.26466	  2.29765	 -0.42862	 -0.22413	  3.16501	710.64001	 23.50	
 20.392	141.062	  2.47395	 -0.46714	  2.39762	  2.16011	 -0.33847	 -0.21714	  3.16837	710.70001	 23.50	
 20.397	145.903	  2.46864	 -0.53784	  2.51563	  2.01057	 -0.24305	 -0.21260	  3.16534	710.63000	 23.50	
 20.405	150.835	  2.46542	 -0.60899	  2.62881	  1.85445	 -0.14387	 -0.20507	  3.17013	710.70001	 23.50	
 20.401	155.705	  2.46117	 -0.66017	  2.72195	  1.69116	 -0.02739	 -0.19962	  3.16725	710.70001	 23.50	
 20.392	160.496	  2.45938	 -0.70137	  2.79771	  1.52770	  0.09524	 -0.19159	  3.16720	710.64001	 23.50	
 20.410	165.423	  2.45511	 -0.73966	  2.86213	  1.35960	  0.22482	 -0.18538	  3.16662	710.65997	 23.50	
 20.407	170.264	  2.45438	 -0.76608	  2.91081	  1.19405	  0.36208	 -0.17671	  3.16679	710.62000	 23.50	
 20.401	175.153	  2.45343	 -0.78121	  2.94240	  1.02447	  0.51368	 -0.17009	  3.16800	710.67999	 23.50	
  0.141	 45.000	  3.17260	  1.36161	  1.41141	  1.39049	  1.35040	  0.06456	  3.16672	710.71997	 23.50	
  4.001	128.691	  3.16081	  1.09386	  1.61342	  1.65650	  1.02466	  0.04032	  3.16515	710.78998	 23.50	
  4.002	 76.995	  3.16729	  1.40982	  1.28559	  1.72519	  0.98162	  0.05442	  3.16819	710.77002	 23.50	
  4.002	 25.892	  3.16523	  1.66499	  1.06491	  1.49735	  1.18223	  0.05997	  3.16374	710.79999	 23.50	
  4.002	-25.892	  3.16683	  1.65343	  1.07691	  1.17816	  1.49947	  0.04867	  3.16765	710.66998	 23.50	
  4.002	-76.995	  3.16731	  1.38104	  1.32060	  0.99920	  1.70751	  0.03757	  3.17082	710.65002	 23.50	
  4.001	-128.691	  3.16134	  1.07090	  1.64567	  1.06751	  1.60814	  0.03116	  3.17005	710.67999	 23.50	
  4.000	180.000	  3.15955	  0.95671	  1.78210	  1.35711	  1.29906	  0.03102	  3.16796	710.75000	 23.50	
  8.000	180.000	  3.08364	  0.50974	  2.14908	  1.29636	  1.19978	 -0.02472	  3.16636	710.76001	 23.50	
  7.991	-152.370	  3.08405	  0.57419	  2.06740	  0.93564	  1.57947	 -0.02450	  3.16610	710.70001	 23.50	
  7.997	-124.550	  3.08801	  0.78649	  1.80720	  0.67365	  1.89986	 -0.02447	  3.16716	710.71002	 23.50	
  8.006	-96.837	  3.09220	  1.11345	  1.44052	  0.55045	  2.07328	 -0.02185	  3.16640	710.78003	 23.50	
  7.988	-69.228	  3.10112	  1.49210	  1.07160	  0.58033	  2.04529	 -0.01887	  3.16886	711.50000	 23.50	
  7.997	-41.563	  3.10612	  1.83205	  0.78457	  0.76019	  1.82416	 -0.00812	  3.16638	711.56000	 23.50	
  8.008	-13.821	  3.11073	  2.04134	  0.62686	  1.06209	  1.48090	  0.00438	  3.16635	710.81000	 23.50	
  8.008	 13.821	  3.11416	  2.05785	  0.60971	  1.42895	  1.10687	  0.01784	  3.16629	711.34003	 23.50	
  7.997	 41.563	  3.11265	  1.87510	  0.74176	  1.79152	  0.78684	  0.02237	  3.16714	711.48999	 23.50	
  7.988	 69.228	  3.10774	  1.54902	  1.01202	  2.04009	  0.58265	  0.01480	  3.16664	710.70001	 23.50	
  8.006	 96.837	  3.10220	  1.16889	  1.37100	  2.10841	  0.52111	  0.00047	  3.16805	711.56000	 23.50	
  7.997	124.550	  3.09274	  0.82706	  1.74406	  1.96901	  0.61645	 -0.00878	  3.16595	711.47998	 23.50	
  7.991	152.370	  3.08918	  0.59614	  2.03146	  1.67178	  0.85618	 -0.02084	  3.16738	710.82001	 23.50	
 12.009	161.059	  2.94891	  0.13213	  2.37910	  1.59176	  0.70522	 -0.08867	  3.16796	710.73999	 23.50	
 12.013	142.081	  2.95345	  0.28792	  2.15440	  1.95760	  0.40875	 -0.08608	  3.16801	710.84998	 23.50	
 12.006	123.113	  2.96246	  0.54579	  1.82198	  2.24554	  0.20314	 -0.07717	  3.16760	711.59003	 23.50	
 12.007	104.200	  2.97150	  0.88067	  1.43997	  2.40888	  0.09940	 -0.07468	  3.16846	711.28003	 23.50	
 11.989	 85.301	  2.97818	  1.26313	  1.05205	  2.42923	  0.09315	 -0.05963	  3.16716	710.89001	 23.50	
 12.013	 66.294	  2.98500	  1.66190	  0.69720	  2.30573	  0.18435	 -0.05485	  3.16853	710.84998	 23.50	
 12.012	 47.388	  2.98931	  2.01037	  0.42233	  2.05234	  0.37140	 -0.04401	  3.16737	711.62000	 23.50	
 11.990	 28.440	  2.99514	  2.26805	  0.24340	  1.69872	  0.65615	 -0.03985	  3.16759	710.87000	 23.50	
 11.991	  9.464	  2.99676	  2.39548	  0.16225	  1.30628	  1.00846	 -0.04704	  3.16715	710.78003	 23.50	
 11.991	 -9.464	  2.99491	  2.37988	  0.18053	  0.92457	  1.39809	 -0.05712	  3.16939	710.87000	 23.50	
 11.990	-28.440	  2.99233	  2.22400	  0.28394	  0.58773	  1.78336	 -0.07397	  3.17347	710.78998	 23.50	
 12.012	-47.388	  2.98292	  1.93793	  0.49094	  0.32547	  2.11140	 -0.07896	  3.17095	710.87000	 23.50	
 12.013	-66.294	  2.97545	  1.57098	  0.79038	  0.16799	  2.32949	 -0.08285	  3.16882	710.75000	 23.50	
 11.989	-85.301	  2.96621	  1.17151	  1.15847	  0.10875	  2.40974	 -0.07940	  3.16618	710.70001	 23.50	
 12.007	-104.200	  2.95773	  0.79890	  1.54873	  0.13948	  2.35190	 -0.08071	  3.16741	710.73999	 23.50	
 12.006	-123.113	  2.95302	  0.48375	  1.92207	  0.27151	  2.15341	 -0.08284	  3.16916	710.75000	 23.50	
 12.013	-142.081	  2.94897	  0.24756	  2.22808	  0.50091	  1.84051	 -0.08445	  3.17029	710.83002	 23.50	
 12.009	-161.059	  2.94537	  0.10823	  2.42027	  0.82077	  1.45667	 -0.08983	  3.16901	710.81000	 23.50	
 16.000	180.000	  2.74297	 -0.34169	  2.73547	  1.05894	  0.89070	 -0.13795	  3.16746	710.81000	 23.50	
 15.990	-165.604	  2.74377	 -0.31260	  2.69937	  0.68048	  1.28707	 -0.12906	  3.16792	710.78003	 23.50	
 16.002	-151.165	  2.74460	 -0.22186	  2.55349	  0.34759	  1.68268	 -0.12002	  3.16852	710.84003	 23.50	
 16.002	-136.836	  2.75041	 -0.05565	  2.30995	  0.08376	  2.04627	 -0.11114	  3.16906	711.48999	 23.50	
 15.995	-122.439	  2.75307	  0.17207	  1.98409	 -0.12007	  2.34891	 -0.10446	  3.16704	710.97998	 23.50	
 15.993	-107.966	  2.76104	  0.46990	  1.60546	 -0.24881	  2.56555	 -0.09753	  3.16632	710.72998	 23.50	
 16.005	-93.629	  2.76823	  0.81596	  1.21401	 -0.30984	  2.67573	 -0.09815	  3.16748	710.67999	 23.50	
 15.992	-79.234	  2.77883	  1.20357	  0.83310	 -0.30270	  2.67494	 -0.10069	  3.16938	710.71997	 23.50	
 16.009	-64.774	  2.78305	  1.59901	  0.48473	 -0.23081	  2.56006	 -0.10747	  3.16690	710.76001	 23.50	
 15.997	-50.364	  2.79455	  1.97530	  0.19408	 -0.09233	  2.33957	 -0.11132	  3.17077	710.88000	 23.50	
 15.997	-36.045	  2.79869	  2.29485	 -0.02766	  0.12117	  2.03111	 -0.11813	  3.16955	710.82001	 23.50	
 16.000	-21.597	  2.80666	  2.53332	 -0.17653	  0.41223	  1.65996	 -0.12237	  3.17000	710.87000	 23.50	
 16.003	 -7.169	  2.81044	  2.66010	 -0.25151	  0.75591	  1.26437	 -0.11678	  3.16707	710.75000	 23.50	
 16.003	  7.169	  2.81665	  2.67841	 -0.26610	  1.13832	  0.87689	 -0.11777	  3.16834	710.75000	 23.50	
 16.000	 21.597	  2.81740	  2.58523	 -0.21415	  1.53954	  0.51659	 -0.11708	  3.16919	710.66998	 23.50	
 15.997	 36.045	  2.81341	  2.38031	 -0.09127	  1.92696	  0.20720	 -0.11841	  3.16919	710.71997	 23.50	
 15.997	 50.364	  2.80429	  2.08534	  0.10588	  2.25605	 -0.02683	 -0.12765	  3.16555	710.77002	 23.50	
 16.009	 64.774	  2.79544	  1.72231	  0.36937	  2.51392	 -0.20192	 -0.13921	  3.16592	710.75000	 23.50	
 15.992	 79.234	  2.79066	  1.32877	  0.69787	  2.66569	 -0.29701	 -0.14357	  3.16760	710.78998	 23.50	
 16.005	 93.629	  2.78487	  0.93367	  1.07016	  2.71081	 -0.32993	 -0.15257	  3.16905	710.73999	 23.50	
 15.993	107.966	  2.77220	  0.56920	  1.46078	  2.63852	 -0.29450	 -0.15872	  3.16360	710.78003	 23.50	
 15.995	122.439	  2.76998	  0.25384	  1.85310	  2.46338	 -0.18686	 -0.15721	  3.16854	710.75000	 23.50	
 16.002	136.836	  2.76092	  0.00453	  2.19876	  2.18846	 -0.01102	 -0.15848	  3.16774	710.75000	 23.50	
 16.002	151.165	  2.75344	 -0.17831	  2.47638	  1.84291	  0.23292	 -0.16176	  3.16582	710.73999	 23.50	
 15.990	165.604	  2.74826	 -0.29170	  2.65914	  1.45568	  0.54126	 -0.14844	  3.16816	710.91998	 23.50	
 20.003	168.362	  2.48764	 -0.71031	  2.87873	  1.27636	  0.33938	 -0.17777	  3.16929	710.87000	 23.50	
 20.008	156.764	  2.49157	 -0.62812	  2.72718	  1.66278	  0.03232	 -0.19597	  3.16782	710.72998	 23.50	
 20.000	145.147	  2.49982	 -0.48852	  2.49100	  2.03492	 -0.22232	 -0.21029	  3.16800	710.73999	 23.50	
 19.995	133.545	  2.50625	 -0.29839	  2.18623	  2.36380	 -0.42588	 -0.22105	  3.16757	710.87000	 23.50	
 20.009	121.926	  2.51588	 -0.05571	  1.83224	  2.62827	 -0.57495	 -0.23037	  3.16833	710.75000	 23.50	
 20.005	110.327	  2.52255	  0.24112	  1.44657	  2.81356	 -0.67500	 -0.23343	  3.16757	710.84003	 23.50	
 19.989	 98.733	  2.53221	  0.58058	  1.05866	  2.91057	 -0.72037	 -0.23685	  3.16943	710.79999	 23.50	
 19.999	 87.075	  2.53634	  0.95712	  0.68126	  2.91580	 -0.71895	 -0.23237	  3.16527	710.79999	 23.50	
 19.992	 75.457	  2.54647	  1.35387	  0.33342	  2.83778	 -0.67210	 -0.22483	  3.16936	710.76001	 23.50	
 20.009	 63.844	  2.55220	  1.74466	  0.03528	  2.66585	 -0.57107	 -0.22345	  3.16880	710.72998	 23.50	
 19.989	 52.269	  2.56451	  2.10728	 -0.20532	  2.41331	 -0.41165	 -0.21286	  3.16810	710.78003	 23.50	
 19.999	 40.602	  2.57095	  2.42225	 -0.40008	  2.09279	 -0.20940	 -0.20487	  3.16880	710.77002	 23.50	
 20.004	 29.051	  2.57774	  2.66668	 -0.53729	  1.72966	  0.05039	 -0.19616	  3.16960	710.77002	 23.50	
 20.005	 17.433	  2.57951	  2.82726	 -0.62367	  1.33378	  0.36334	 -0.17649	  3.16788	710.83002	 23.50	
 20.006	  5.780	  2.57736	  2.89856	 -0.66036	  0.94013	  0.71690	 -0.16376	  3.16662	710.87000	 23.50	
 20.006	 -5.780	  2.57096	  2.88081	 -0.65033	  0.56997	  1.09562	 -0.15682	  3.16652	710.84998	 23.50	
 20.005	-17.433	  2.56654	  2.77497	 -0.59632	  0.22310	  1.48863	 -0.14313	  3.16800	710.78003	 23.50	
 20.004	-29.051	  2.55880	  2.57369	 -0.48388	 -0.07207	  1.87372	 -0.13257	  3.16749	710.78003	 23.50	
 19.999	-40.602	  2.55296	  2.29764	 -0.31938	 -0.30736	  2.22210	 -0.12488	  3.16729	710.84998	 23.50	
 19.989	-52.269	  2.54861	  1.96174	 -0.09562	 -0.47748	  2.51329	 -0.11736	  3.16736	710.75000	 23.50	
 20.009	-63.844	  2.53843	  1.58923	  0.17324	 -0.60381	  2.73079	 -0.11418	  3.16668	710.85999	 23.50	
 19.992	-75.457	  2.53287	  1.19775	  0.49425	 -0.68248	  2.86614	 -0.10660	  3.16996	710.79999	 23.50	
 19.999	-87.075	  2.52401	  0.81128	  0.85328	 -0.71016	  2.90673	 -0.10391	  3.17002	710.72998	 23.50	
 19.989	-98.733	  2.51724	  0.44780	  1.23540	 -0.69058	  2.85884	 -0.10202	  3.16972	710.79999	 23.50	
 20.005	-110.327	  2.50613	  0.12598	  1.62339	 -0.62303	  2.72049	 -0.10569	  3.16876	710.76001	 23.50	
 20.009	-121.926	  2.50316	 -0.14726	  1.99756	 -0.50141	  2.49947	 -0.10587	  3.17095	710.82001	 23.50	
 19.995	-133.545	  2.49558	 -0.36831	  2.33091	 -0.32343	  2.19991	 -0.11364	  3.16950	710.78003	 23.50	
 20.000	-145.147	  2.48782	 -0.53871	  2.60286	 -0.09691	  1.84888	 -0.11937	  3.16736	710.97998	 23.50	
 20.008	-156.764	  2.48203	 -0.65756	  2.80120	  0.18523	  1.46588	 -0.13635	  3.16584	710.84998	 23.50	
 20.003	-168.362	  2.48379	 -0.72679	  2.91707	  0.51263	  1.07429	 -0.14593	  3.16968	710.79999	 23.50	
 20.000	180.000	  2.48318	 -0.74244	  2.94004	  0.88293	  0.69265	 -0.16248	  3.16772	710.82001	 23.50	
