FileType=PCF
NHL=14
Date=08/29/17	10:28:51
Facility=APL
Serial=16328-14
Customer=NASA
NP=6
Mach=0.050000
Calibration=1:1
CalPts=490
TstPts=95
PortNumbering=AP Standard
Units=Torr C m/s kg/m^3 deg mm 
Theta[deg]	Phi[deg]	P1[Torr]	P2[Torr]	P3[Torr]	P4[Torr]	P5[Torr]	P6[Torr]	Pt[Torr]	Ps[Abs,Torr]	Ts[C]	
  0.000	  0.000	  1.28096	  0.69727	  0.69887	  0.68367	  0.70692	  0.00996	  1.27269	706.00299	 24.40	
  1.691	128.401	  1.27603	  0.65298	  0.71683	  0.71296	  0.65431	  0.00947	  1.26683	705.89899	 24.40	
  1.692	 77.194	  1.27705	  0.69789	  0.67193	  0.72475	  0.64348	  0.00888	  1.26732	705.99200	 24.40	
  1.699	 26.182	  1.27697	  0.73626	  0.63681	  0.69422	  0.66793	  0.00702	  1.26745	705.92999	 24.40	
  1.699	-26.182	  1.27445	  0.73317	  0.63510	  0.64222	  0.71521	  0.00693	  1.26664	705.93103	 24.40	
  1.692	-77.194	  1.27084	  0.69048	  0.66736	  0.61440	  0.74250	  0.00580	  1.26327	705.91302	 24.40	
  1.691	-128.401	  1.27368	  0.64754	  0.71595	  0.62621	  0.73325	  0.00596	  1.26561	705.97803	 24.40	
  1.700	180.000	  1.27756	  0.63458	  0.73931	  0.67086	  0.69161	  0.00736	  1.26821	705.89001	 24.40	
  3.400	180.000	  1.27370	  0.56306	  0.80140	  0.66308	  0.68343	  0.00478	  1.26657	706.00702	 24.40	
  3.388	-152.325	  1.27488	  0.57312	  0.78743	  0.60718	  0.74038	  0.00335	  1.26983	706.05402	 24.30	
  3.397	-124.529	  1.26892	  0.60509	  0.74318	  0.56320	  0.78299	  0.00246	  1.26507	705.83398	 24.30	
  3.399	-96.763	  1.26999	  0.65741	  0.68824	  0.54477	  0.80628	  0.00259	  1.26699	705.85901	 24.30	
  3.394	-69.283	  1.26964	  0.71513	  0.63270	  0.55026	  0.79976	  0.00361	  1.26564	706.08698	 24.30	
  3.400	-41.398	  1.26861	  0.76681	  0.58607	  0.58094	  0.76414	  0.00218	  1.26430	705.96198	 24.30	
  3.401	-14.021	  1.26889	  0.79743	  0.56250	  0.62935	  0.71365	  0.00147	  1.26349	705.96198	 24.30	
  3.401	 14.021	  1.27298	  0.80065	  0.56417	  0.69105	  0.65639	  0.00214	  1.26569	705.91302	 24.30	
  3.400	 41.398	  1.27390	  0.77458	  0.58884	  0.74534	  0.60896	  0.00451	  1.26534	705.89697	 24.30	
  3.394	 69.283	  1.27154	  0.72309	  0.63327	  0.77904	  0.57886	  0.00516	  1.26274	706.00098	 24.30	
  3.399	 96.763	  1.27316	  0.66691	  0.68946	  0.78832	  0.57361	  0.00697	  1.26399	706.02301	 24.30	
  3.397	124.529	  1.27461	  0.61454	  0.74468	  0.76780	  0.59061	  0.00866	  1.26502	706.06201	 24.30	
  3.388	152.325	  1.27456	  0.57928	  0.78584	  0.72242	  0.62908	  0.00646	  1.26657	705.95203	 24.30	
  5.099	161.165	  1.26763	  0.50210	  0.85045	  0.71773	  0.61503	  0.00259	  1.26477	706.10797	 24.30	
  5.109	142.013	  1.26902	  0.53179	  0.81888	  0.77546	  0.56486	  0.00497	  1.26422	705.84100	 24.30	
  5.095	123.033	  1.27128	  0.57619	  0.77187	  0.82047	  0.52965	  0.00445	  1.26629	706.05200	 24.30	
  5.105	104.191	  1.27012	  0.63026	  0.71357	  0.84688	  0.50761	  0.00369	  1.26513	705.88300	 24.30	
  5.093	 85.207	  1.27426	  0.69349	  0.65434	  0.85412	  0.50602	  0.00265	  1.26868	705.99500	 24.30	
  5.104	 66.290	  1.27329	  0.75469	  0.59515	  0.83642	  0.51814	 -0.00053	  1.26789	705.81403	 24.30	
  5.094	 47.331	  1.27367	  0.80796	  0.54651	  0.79963	  0.54938	 -0.00199	  1.26929	705.95203	 24.30	
  5.089	 28.397	  1.26971	  0.84455	  0.51063	  0.74591	  0.59196	 -0.00341	  1.26681	705.82098	 24.30	
  5.096	  9.576	  1.26924	  0.86409	  0.49234	  0.68487	  0.64767	 -0.00472	  1.26813	705.98401	 24.30	
  5.096	 -9.576	  1.26335	  0.85870	  0.49054	  0.61769	  0.70802	 -0.00436	  1.26454	706.02600	 24.30	
  5.089	-28.397	  1.26736	  0.83828	  0.51109	  0.56476	  0.76875	 -0.00371	  1.26989	705.89697	 24.30	
  5.094	-47.331	  1.25831	  0.79116	  0.54173	  0.51410	  0.81359	 -0.00356	  1.26215	705.92102	 24.30	
  5.104	-66.290	  1.26402	  0.73945	  0.59244	  0.48353	  0.85328	 -0.00242	  1.26842	705.87598	 24.30	
  5.093	-85.207	  1.26857	  0.68007	  0.65327	  0.47182	  0.87216	 -0.00364	  1.27380	705.95898	 24.30	
  5.105	-104.191	  1.26478	  0.61594	  0.71369	  0.47527	  0.86363	 -0.00358	  1.26848	706.03101	 24.30	
  5.095	-123.033	  1.26301	  0.56229	  0.77038	  0.49848	  0.83479	 -0.00374	  1.26589	706.03400	 24.30	
  5.109	-142.013	  1.26639	  0.52205	  0.82010	  0.54032	  0.79134	 -0.00295	  1.26786	706.07300	 24.30	
  5.099	-161.165	  1.26314	  0.49582	  0.84928	  0.59241	  0.73264	 -0.00124	  1.26432	706.09302	 24.30	
  5.100	180.000	  1.26271	  0.48839	  0.85916	  0.65184	  0.67168	  0.00111	  1.26157	706.06299	 24.30	
  6.800	180.000	  1.25611	  0.41693	  0.91952	  0.64252	  0.66206	 -0.00460	  1.26525	705.96899	 24.30	
  6.796	-166.229	  1.25545	  0.42074	  0.91158	  0.58186	  0.72150	 -0.00565	  1.26553	705.84497	 24.30	
  6.808	-152.311	  1.25521	  0.43804	  0.88862	  0.52540	  0.78037	 -0.00760	  1.26731	705.92999	 24.30	
  6.795	-138.383	  1.25049	  0.46700	  0.84805	  0.47441	  0.83122	 -0.00921	  1.26374	705.96399	 24.30	
  6.792	-124.591	  1.25273	  0.50881	  0.80202	  0.43684	  0.87654	 -0.01069	  1.26834	705.98297	 24.30	
  6.787	-110.754	  1.24958	  0.55789	  0.74384	  0.40912	  0.90547	 -0.01081	  1.26594	705.97198	 24.30	
  6.800	-96.985	  1.24624	  0.61351	  0.68269	  0.39480	  0.92020	 -0.01014	  1.26252	706.02600	 24.30	
  6.800	-83.015	  1.25023	  0.67771	  0.62314	  0.39534	  0.92341	 -0.00890	  1.26734	706.09003	 24.30	
  6.787	-69.246	  1.25338	  0.74117	  0.56728	  0.40979	  0.91075	 -0.00923	  1.27071	705.88501	 24.30	
  6.792	-55.409	  1.24232	  0.79167	  0.51121	  0.43137	  0.87342	 -0.01060	  1.25901	705.99200	 24.30	
  6.795	-41.617	  1.24295	  0.84120	  0.46930	  0.46975	  0.83153	 -0.00964	  1.25875	705.96698	 24.30	
  6.808	-27.689	  1.24688	  0.88289	  0.43858	  0.51914	  0.78117	 -0.01025	  1.26050	705.83502	 24.30	
  6.796	-13.771	  1.25150	  0.91021	  0.42034	  0.57689	  0.72552	 -0.01202	  1.26390	706.01801	 24.30	
  6.800	  0.000	  1.25201	  0.91961	  0.41411	  0.63722	  0.66464	 -0.01343	  1.26318	705.98401	 24.20	
  6.796	 13.771	  1.25651	  0.91703	  0.42126	  0.70177	  0.60679	 -0.01362	  1.26453	705.93103	 24.20	
  6.808	 27.689	  1.25057	  0.89045	  0.43916	  0.75835	  0.54975	 -0.01319	  1.25827	705.91400	 24.20	
  6.795	 41.617	  1.26069	  0.86010	  0.47472	  0.81682	  0.50777	 -0.01159	  1.26649	706.10999	 24.20	
  6.792	 55.409	  1.25925	  0.81320	  0.51581	  0.86079	  0.47043	 -0.00875	  1.26339	706.11102	 24.20	
  6.787	 69.246	  1.25811	  0.75629	  0.56658	  0.89071	  0.44472	 -0.00707	  1.26142	705.99200	 24.20	
  6.800	 83.015	  1.25766	  0.69627	  0.62334	  0.90741	  0.43092	 -0.00353	  1.25929	705.98297	 24.20	
  6.800	 96.985	  1.25573	  0.63260	  0.68351	  0.90697	  0.43016	 -0.00048	  1.25809	705.98700	 24.20	
  6.787	110.754	  1.25404	  0.57517	  0.74240	  0.88978	  0.44262	  0.00007	  1.25690	705.98401	 24.20	
  6.792	124.591	  1.25760	  0.52459	  0.80038	  0.86193	  0.46864	  0.00061	  1.25965	705.93597	 24.20	
  6.795	138.383	  1.25758	  0.48150	  0.84934	  0.81852	  0.50472	  0.00175	  1.26200	705.98999	 24.20	
  6.808	152.311	  1.25556	  0.44709	  0.88609	  0.76449	  0.54834	  0.00012	  1.26030	706.14899	 24.20	
  6.796	166.229	  1.24638	  0.42324	  0.90337	  0.70026	  0.59823	 -0.00257	  1.25367	705.96198	 24.20	
  8.491	168.704	  1.23602	  0.34930	  0.96030	  0.68977	  0.58224	 -0.01029	  1.25814	705.97498	 24.20	
  8.502	157.493	  1.23804	  0.36679	  0.94300	  0.75256	  0.52716	 -0.00699	  1.25785	705.99298	 24.20	
  8.494	146.194	  1.23773	  0.39560	  0.90932	  0.81008	  0.47711	 -0.00567	  1.25569	705.92200	 24.20	
  8.495	135.039	  1.24186	  0.43316	  0.87103	  0.86439	  0.43574	 -0.00527	  1.25950	705.97998	 24.20	
  8.487	123.723	  1.24158	  0.47818	  0.81877	  0.90675	  0.40050	 -0.00724	  1.25904	706.12500	 24.20	
  8.492	112.575	  1.25404	  0.53562	  0.76927	  0.94705	  0.37855	 -0.00665	  1.27062	706.08002	 24.20	
  8.510	101.220	  1.24490	  0.59045	  0.70146	  0.96003	  0.36052	 -0.00834	  1.26110	706.18298	 24.20	
  8.500	 90.000	  1.24266	  0.65184	  0.63766	  0.96427	  0.35549	 -0.01141	  1.25895	706.10101	 24.20	
  8.510	 78.780	  1.24183	  0.71353	  0.57613	  0.95625	  0.35988	 -0.01444	  1.25826	706.07098	 24.20	
  8.492	 67.425	  1.24041	  0.77454	  0.51822	  0.93497	  0.37602	 -0.01617	  1.25725	705.99200	 24.20	
  8.487	 56.277	  1.24388	  0.83256	  0.46941	  0.90520	  0.40328	 -0.01806	  1.26146	706.02100	 24.20	
  8.495	 44.961	  1.24054	  0.88149	  0.42221	  0.85987	  0.43714	 -0.02231	  1.26053	706.10400	 24.20	
  8.494	 33.806	  1.23846	  0.92133	  0.38685	  0.80652	  0.48107	 -0.02288	  1.25866	706.15198	 24.20	
  8.502	 22.507	  1.23236	  0.94753	  0.35861	  0.74467	  0.52933	 -0.02378	  1.25350	706.10999	 24.20	
  8.491	 11.296	  1.23265	  0.96539	  0.34325	  0.68378	  0.58639	 -0.02274	  1.25690	705.95502	 24.20	
  8.500	  0.000	  1.23861	  0.97588	  0.33976	  0.62265	  0.65118	 -0.02557	  1.26483	705.99298	 24.20	
  8.491	-11.296	  1.22893	  0.95987	  0.34306	  0.55618	  0.70846	 -0.02507	  1.25695	706.11298	 24.20	
  8.502	-22.507	  1.22945	  0.94006	  0.35885	  0.49848	  0.76930	 -0.02031	  1.25883	706.18298	 24.20	
  8.494	-33.806	  1.22953	  0.90697	  0.38507	  0.44519	  0.82747	 -0.01831	  1.26077	706.21802	 24.20	
  8.495	-44.961	  1.22953	  0.86429	  0.42111	  0.40015	  0.87793	 -0.01857	  1.26191	706.02399	 24.20	
  8.487	-56.277	  1.22734	  0.80971	  0.46499	  0.36365	  0.91719	 -0.01929	  1.26105	705.99298	 24.20	
  8.492	-67.425	  1.23020	  0.75361	  0.51790	  0.33851	  0.95059	 -0.01777	  1.26490	706.07703	 24.20	
  8.510	-78.780	  1.22817	  0.68999	  0.57512	  0.32101	  0.96906	 -0.01695	  1.26302	706.21100	 24.20	
  8.500	-90.000	  1.22951	  0.62760	  0.63701	  0.31722	  0.97540	 -0.01863	  1.26338	706.04498	 24.20	
  8.510	-101.220	  1.23156	  0.56723	  0.70004	  0.32288	  0.97061	 -0.01880	  1.26617	706.08002	 24.20	
  8.492	-112.575	  1.23128	  0.50909	  0.76180	  0.34018	  0.94899	 -0.01796	  1.26475	706.00702	 24.20	
  8.487	-123.723	  1.22369	  0.45604	  0.81374	  0.36587	  0.91131	 -0.01695	  1.25603	706.01703	 24.20	
  8.495	-135.039	  1.22914	  0.41428	  0.86796	  0.40320	  0.87227	 -0.01669	  1.25940	706.06000	 24.20	
  8.494	-146.194	  1.23490	  0.38137	  0.91304	  0.45079	  0.82445	 -0.01530	  1.26367	706.00299	 24.20	
  8.502	-157.493	  1.23780	  0.35796	  0.94635	  0.50549	  0.76800	 -0.01350	  1.26472	706.07098	 24.20	
  8.491	-168.704	  1.24204	  0.34638	  0.96785	  0.56646	  0.70957	 -0.01191	  1.26833	706.00598	 24.20	
  8.500	180.000	  1.25122	  0.34523	  0.98099	  0.63352	  0.65204	 -0.01218	  1.27465	706.01501	 24.20	
 10.200	180.000	  1.23121	  0.26837	  1.03128	  0.61567	  0.63229	 -0.02018	  1.27616	706.05200	 24.20	
 10.191	-170.497	  1.21566	  0.26737	  1.01479	  0.54506	  0.68743	 -0.02124	  1.26201	705.95300	 24.20	
 10.210	-161.034	  1.21348	  0.27806	  0.99619	  0.48389	  0.74858	 -0.02121	  1.26142	706.00098	 24.20	
 10.194	-151.526	  1.21193	  0.29790	  0.96881	  0.42693	  0.80873	 -0.02257	  1.26059	705.99500	 24.20	
 10.190	-142.105	  1.21273	  0.32647	  0.93255	  0.37758	  0.86514	 -0.02411	  1.26419	706.04901	 24.20	
 10.215	-132.646	  1.20951	  0.36164	  0.88675	  0.33270	  0.91344	 -0.02431	  1.26269	705.99799	 24.20	
 10.203	-123.092	  1.20926	  0.40696	  0.83328	  0.29654	  0.95557	 -0.02671	  1.26302	705.95599	 24.20	
 10.192	-113.678	  1.20591	  0.45794	  0.77336	  0.26903	  0.98593	 -0.03032	  1.26085	705.93103	 24.20	
 10.208	-104.249	  1.20660	  0.51329	  0.71213	  0.24927	  1.01043	 -0.02984	  1.26311	705.95203	 24.20	
 10.210	-94.801	  1.20479	  0.57380	  0.64903	  0.23963	  1.02163	 -0.02855	  1.26213	705.95502	 24.20	
 10.210	-85.199	  1.20376	  0.63781	  0.58474	  0.23890	  1.02207	 -0.02600	  1.26091	705.96399	 24.20	
 10.208	-75.751	  1.20748	  0.70357	  0.52549	  0.24829	  1.01433	 -0.02659	  1.26414	706.09003	 24.20	
 10.192	-66.322	  1.20563	  0.76442	  0.46858	  0.26632	  0.99054	 -0.02754	  1.26183	705.98297	 24.20	
 10.203	-56.908	  1.20166	  0.82061	  0.41497	  0.29152	  0.95509	 -0.02794	  1.25682	705.94501	 24.20	
 10.215	-47.354	  1.20422	  0.87674	  0.36860	  0.32716	  0.91557	 -0.02780	  1.25827	705.88501	 24.20	
 10.190	-37.895	  1.20670	  0.92527	  0.33251	  0.37106	  0.86845	 -0.02778	  1.26001	705.94702	 24.20	
 10.194	-28.474	  1.21133	  0.96656	  0.30310	  0.42220	  0.81673	 -0.02832	  1.26233	705.81201	 24.20	
 10.210	-18.966	  1.21013	  0.99471	  0.28013	  0.47803	  0.75460	 -0.03116	  1.25917	705.95502	 24.20	
 10.191	 -9.503	  1.21284	  1.01414	  0.26763	  0.53857	  0.69407	 -0.03240	  1.26005	705.97198	 24.10	
 10.200	  0.000	  1.21505	  1.02316	  0.26257	  0.60235	  0.63224	 -0.03406	  1.26158	705.95599	 24.20	
 10.191	  9.503	  1.21263	  1.01591	  0.26774	  0.66565	  0.56839	 -0.03386	  1.25582	705.91602	 24.20	
 10.210	 18.966	  1.21853	  1.00642	  0.28060	  0.73175	  0.51225	 -0.03528	  1.26056	705.88202	 24.20	
 10.194	 28.474	  1.21573	  0.97673	  0.30344	  0.79171	  0.45736	 -0.03437	  1.25690	705.90002	 24.20	
 10.190	 37.895	  1.21968	  0.94347	  0.33527	  0.85073	  0.41078	 -0.03437	  1.25890	705.94202	 24.20	
 10.215	 47.354	  1.22380	  0.90289	  0.37303	  0.90505	  0.36886	 -0.03124	  1.26190	706.06000	 24.20	
 10.203	 56.908	  1.22236	  0.84890	  0.41867	  0.94520	  0.33521	 -0.02890	  1.25946	706.14203	 24.20	
 10.192	 66.322	  1.22723	  0.79401	  0.47311	  0.98082	  0.31111	 -0.02613	  1.26237	705.96100	 24.20	
 10.208	 75.751	  1.23146	  0.73530	  0.53075	  1.00809	  0.29326	 -0.02458	  1.26734	705.98700	 24.10	
 10.210	 85.199	  1.22674	  0.66921	  0.58907	  1.01649	  0.28295	 -0.02140	  1.26148	705.97601	 24.10	
 10.210	 94.801	  1.22974	  0.60569	  0.65446	  1.01888	  0.28300	 -0.01945	  1.26400	705.93500	 24.10	
 10.208	104.249	  1.22188	  0.54142	  0.71380	  1.00195	  0.28921	 -0.01632	  1.25638	705.91602	 24.10	
 10.192	113.678	  1.23049	  0.48777	  0.78015	  0.98625	  0.30991	 -0.01335	  1.26383	705.91101	 24.10	
 10.203	123.092	  1.22689	  0.43286	  0.83644	  0.95109	  0.33363	 -0.01392	  1.26187	705.92401	 24.20	
 10.215	132.646	  1.22069	  0.38384	  0.88589	  0.90589	  0.36484	 -0.01332	  1.25629	705.89697	 24.10	
 10.190	142.105	  1.22489	  0.34576	  0.93421	  0.85844	  0.40728	 -0.01269	  1.26122	705.99200	 24.20	
 10.194	151.526	  1.22654	  0.31463	  0.97372	  0.80328	  0.45626	 -0.01211	  1.26381	705.93500	 24.10	
 10.210	161.034	  1.21968	  0.28792	  0.99716	  0.73821	  0.50627	 -0.01551	  1.25967	705.95898	 24.10	
 10.191	170.497	  1.22054	  0.27230	  1.01580	  0.67558	  0.56473	 -0.02057	  1.26302	705.99799	 24.10	
 11.899	171.783	  1.19438	  0.19640	  1.06055	  0.65458	  0.54125	 -0.02966	  1.25982	705.97998	 24.20	
 11.890	163.610	  1.19803	  0.20979	  1.04791	  0.72074	  0.48397	 -0.02597	  1.26289	706.01398	 24.20	
 11.889	155.445	  1.20259	  0.23187	  1.02650	  0.78592	  0.43094	 -0.02213	  1.26507	705.96698	 24.20	
 11.909	147.299	  1.20445	  0.25962	  0.99524	  0.84740	  0.38044	 -0.02082	  1.26644	705.85699	 24.20	
 11.902	139.148	  1.20179	  0.29449	  0.95061	  0.89998	  0.33503	 -0.02245	  1.26169	705.95898	 24.20	
 11.894	130.867	  1.20849	  0.33908	  0.90655	  0.95291	  0.29875	 -0.02277	  1.26717	706.00897	 24.20	
 11.897	122.732	  1.20796	  0.38627	  0.85138	  0.99323	  0.26693	 -0.02325	  1.26586	705.97803	 24.20	
 11.903	114.597	  1.20750	  0.43835	  0.79185	  1.02632	  0.24068	 -0.02258	  1.26532	705.97803	 24.20	
 11.893	106.346	  1.20469	  0.49544	  0.72741	  1.04769	  0.22178	 -0.02298	  1.26163	706.00000	 24.10	
 11.892	 98.155	  1.20665	  0.55746	  0.66485	  1.06323	  0.21155	 -0.02568	  1.26396	705.92200	 24.10	
 11.900	 90.000	  1.20321	  0.61868	  0.60045	  1.06530	  0.20721	 -0.02873	  1.26001	706.03198	 24.10	
 11.892	 81.845	  1.20624	  0.68417	  0.53905	  1.06217	  0.21185	 -0.03258	  1.26412	705.90802	 24.20	
 11.893	 73.654	  1.20795	  0.74854	  0.47989	  1.04818	  0.22465	 -0.03481	  1.26585	706.09399	 24.20	
 11.903	 65.403	  1.20583	  0.81001	  0.42209	  1.02136	  0.24259	 -0.03634	  1.26595	706.07898	 24.20	
 11.897	 57.268	  1.21075	  0.87102	  0.37203	  0.99204	  0.26946	 -0.04061	  1.27132	705.93500	 24.20	
 11.894	 49.133	  1.20249	  0.91925	  0.32423	  0.94326	  0.30226	 -0.04273	  1.26353	706.08801	 24.20	
 11.902	 40.852	  1.19664	  0.96179	  0.28192	  0.89022	  0.33974	 -0.04479	  1.25835	706.06299	 24.20	
 11.909	 32.701	  1.19817	  1.00427	  0.24905	  0.83706	  0.38573	 -0.04529	  1.26207	706.02899	 24.10	
 11.889	 24.555	  1.19340	  1.03154	  0.22267	  0.77351	  0.43591	 -0.04643	  1.25866	706.13300	 24.20	
 11.890	 16.390	  1.19132	  1.05243	  0.20384	  0.71015	  0.49012	 -0.04540	  1.25799	706.00598	 24.20	
 11.899	  8.217	  1.19327	  1.06779	  0.19251	  0.64842	  0.54990	 -0.04779	  1.26264	706.03998	 24.20	
 11.900	  0.000	  1.19378	  1.07211	  0.18857	  0.58224	  0.61321	 -0.04619	  1.26460	706.05402	 24.20	
 11.899	 -8.217	  1.19535	  1.06788	  0.19260	  0.51994	  0.67792	 -0.04446	  1.26860	706.09601	 24.20	
 11.890	-16.390	  1.18978	  1.04701	  0.20311	  0.45728	  0.73781	 -0.04273	  1.26457	706.02600	 24.20	
 11.889	-24.555	  1.18978	  1.02152	  0.22297	  0.39982	  0.79965	 -0.04038	  1.26430	705.99500	 24.20	
 11.909	-32.701	  1.18720	  0.98593	  0.24748	  0.34550	  0.85776	 -0.03684	  1.26562	706.07703	 24.20	
 11.902	-40.852	  1.18477	  0.94100	  0.28099	  0.29844	  0.90899	 -0.03716	  1.26466	706.03101	 24.20	
 11.894	-49.133	  1.18085	  0.88911	  0.31992	  0.25621	  0.95469	 -0.03709	  1.26087	705.93103	 24.20	
 11.897	-57.268	  1.18358	  0.83634	  0.36669	  0.22321	  0.99837	 -0.03845	  1.26623	706.01398	 24.20	
 11.903	-65.403	  1.18473	  0.77780	  0.41912	  0.19638	  1.03235	 -0.03753	  1.26863	706.01703	 24.20	
 11.893	-73.654	  1.18624	  0.71533	  0.47786	  0.17849	  1.05700	 -0.03628	  1.27110	706.08698	 24.20	
 11.892	-81.845	  1.19127	  0.65351	  0.53943	  0.16827	  1.07485	 -0.03656	  1.27573	706.11102	 24.20	
 11.900	-90.000	  1.19333	  0.58930	  0.60381	  0.16419	  1.08112	 -0.03729	  1.27811	705.94702	 24.20	
 11.892	-98.155	  1.18163	  0.52089	  0.66097	  0.16714	  1.06501	 -0.04032	  1.26436	706.06000	 24.20	
 11.893	-106.346	  1.18021	  0.46114	  0.72361	  0.17938	  1.04819	 -0.04006	  1.26327	706.03198	 24.20	
 11.903	-114.597	  1.18055	  0.40372	  0.78631	  0.19784	  1.02372	 -0.04018	  1.26336	706.06201	 24.20	
 11.897	-122.732	  1.17800	  0.35298	  0.84096	  0.22492	  0.98790	 -0.03690	  1.25907	706.04797	 24.20	
 11.894	-130.867	  1.17912	  0.30867	  0.89502	  0.25926	  0.94710	 -0.03516	  1.25832	706.17798	 24.20	
 11.902	-139.148	  1.18119	  0.27059	  0.94391	  0.30252	  0.89775	 -0.03331	  1.25719	705.98401	 24.20	
 11.909	-147.299	  1.18513	  0.23864	  0.98860	  0.35007	  0.84710	 -0.03410	  1.26074	706.14697	 24.20	
 11.889	-155.445	  1.18834	  0.21587	  1.02247	  0.40329	  0.79062	 -0.03356	  1.26265	706.06299	 24.20	
 11.890	-163.610	  1.18918	  0.20043	  1.04575	  0.46301	  0.72837	 -0.03253	  1.26135	706.12799	 24.20	
 11.899	-171.783	  1.19566	  0.19143	  1.06445	  0.52659	  0.66866	 -0.03233	  1.26548	706.08502	 24.20	
 11.900	180.000	  1.19710	  0.19172	  1.06878	  0.59084	  0.60584	 -0.02984	  1.26313	706.19800	 24.20	
 13.600	180.000	  1.16393	  0.11543	  1.10668	  0.56635	  0.57924	 -0.03869	  1.26047	706.01501	 24.20	
 13.608	-172.853	  1.16081	  0.11506	  1.10145	  0.50139	  0.64024	 -0.04034	  1.26006	706.10498	 24.20	
 13.611	-165.583	  1.16316	  0.12228	  1.09266	  0.44054	  0.70563	 -0.03874	  1.26458	706.10797	 24.20	
 13.601	-158.353	  1.16431	  0.13711	  1.07261	  0.38120	  0.77065	 -0.03901	  1.26879	706.04199	 24.20	
 13.609	-151.210	  1.15832	  0.15630	  1.04004	  0.32509	  0.82629	 -0.04080	  1.26380	705.95203	 24.20	
 13.611	-143.999	  1.16051	  0.18453	  1.00608	  0.27661	  0.88594	 -0.04028	  1.26827	705.99799	 24.20	
 13.601	-136.825	  1.15653	  0.21703	  0.96006	  0.22914	  0.93698	 -0.04162	  1.26524	705.90399	 24.20	
 13.596	-129.640	  1.15120	  0.25481	  0.90690	  0.18911	  0.98041	 -0.04396	  1.26225	706.22198	 24.20	
 13.611	-122.431	  1.15370	  0.30113	  0.85394	  0.15624	  1.02446	 -0.04642	  1.26600	706.18903	 24.20	
 13.604	-115.211	  1.14958	  0.35040	  0.79385	  0.12956	  1.05500	 -0.04958	  1.26248	706.07300	 24.20	
 13.595	-108.042	  1.14455	  0.40290	  0.72962	  0.10889	  1.07549	 -0.04941	  1.25805	706.12500	 24.20	
 13.607	-100.793	  1.14941	  0.46290	  0.66909	  0.09471	  1.09872	 -0.04864	  1.26382	706.15198	 24.20	
 13.601	-93.617	  1.14966	  0.52460	  0.60542	  0.08783	  1.10797	 -0.04751	  1.26425	706.16998	 24.20	
 13.601	-86.383	  1.14726	  0.58753	  0.54066	  0.08671	  1.10664	 -0.04496	  1.26185	706.11798	 24.20	
 13.607	-79.207	  1.14688	  0.65153	  0.47902	  0.09348	  1.09816	 -0.04444	  1.26185	706.03998	 24.20	
 13.595	-71.958	  1.14929	  0.71739	  0.42155	  0.10789	  1.08428	 -0.04460	  1.26423	706.14203	 24.20	
 13.604	-64.789	  1.14881	  0.77914	  0.36499	  0.12590	  1.05909	 -0.04391	  1.26195	706.09003	 24.20	
 13.611	-57.569	  1.14938	  0.84048	  0.31371	  0.15127	  1.02816	 -0.04409	  1.26212	706.12097	 24.20	
 13.596	-50.360	  1.14958	  0.89566	  0.26795	  0.18487	  0.98737	 -0.04591	  1.26188	706.17999	 24.20	
 13.601	-43.175	  1.15557	  0.95142	  0.22865	  0.22482	  0.94473	 -0.04443	  1.26614	706.10199	 24.20	
 13.611	-36.001	  1.15576	  0.99622	  0.19406	  0.27007	  0.89211	 -0.04408	  1.26485	706.11798	 24.20	
 13.609	-28.790	  1.15494	  1.03415	  0.16437	  0.31884	  0.83511	 -0.04511	  1.26290	706.01398	 24.20	
 13.601	-21.647	  1.15849	  1.06704	  0.14234	  0.37346	  0.77735	 -0.04652	  1.26441	706.07098	 24.20	
 13.611	-14.417	  1.15846	  1.08961	  0.12673	  0.43269	  0.71376	 -0.05089	  1.26278	706.02600	 24.20	
 13.608	 -7.147	  1.16104	  1.10586	  0.11725	  0.49459	  0.65143	 -0.05269	  1.26284	706.05701	 24.20	
 13.600	  0.000	  1.16155	  1.11033	  0.11513	  0.55752	  0.58992	 -0.05400	  1.26095	706.08502	 24.20	
 13.608	  7.147	  1.15966	  1.10594	  0.11791	  0.62065	  0.52701	 -0.05436	  1.25816	706.08698	 24.20	
 13.611	 14.417	  1.16635	  1.10034	  0.12746	  0.68917	  0.46906	 -0.05583	  1.26318	706.01099	 24.20	
 13.601	 21.647	  1.16558	  1.07966	  0.14355	  0.75243	  0.41186	 -0.05400	  1.26086	706.00897	 24.20	
 13.609	 28.790	  1.16854	  1.05467	  0.16604	  0.81552	  0.35929	 -0.05506	  1.26233	706.02301	 24.20	
 13.611	 36.001	  1.17846	  1.02662	  0.19680	  0.88075	  0.31357	 -0.05667	  1.27120	706.01703	 24.20	
 13.601	 43.175	  1.17021	  0.97600	  0.23145	  0.92581	  0.27058	 -0.05584	  1.26050	705.97998	 24.20	
 13.596	 50.360	  1.17508	  0.93045	  0.27228	  0.97745	  0.23275	 -0.05449	  1.26403	705.95898	 24.20	
 13.611	 57.569	  1.17425	  0.87602	  0.31755	  1.01901	  0.19976	 -0.05128	  1.26238	705.96399	 24.20	
 13.604	 64.789	  1.17492	  0.81787	  0.36787	  1.05340	  0.17368	 -0.04790	  1.26186	705.98602	 24.20	
 13.595	 71.958	  1.17386	  0.75541	  0.42357	  1.07790	  0.15554	 -0.04626	  1.25984	706.00897	 24.20	
 13.607	 79.207	  1.17691	  0.69362	  0.48314	  1.09820	  0.14201	 -0.04232	  1.26254	705.98602	 24.20	
 13.601	 86.383	  1.18013	  0.63191	  0.54548	  1.10945	  0.13667	 -0.03886	  1.26479	706.10797	 24.20	
 13.601	 93.617	  1.17448	  0.56469	  0.60663	  1.10463	  0.13563	 -0.03552	  1.25891	706.16602	 24.20	
 13.607	100.793	  1.17995	  0.50542	  0.67301	  1.10330	  0.14140	 -0.03298	  1.26543	706.16998	 24.20	
 13.595	108.042	  1.17895	  0.44461	  0.73629	  1.08514	  0.15273	 -0.03253	  1.26473	706.08197	 24.20	
 13.604	115.211	  1.17865	  0.38785	  0.79899	  1.06052	  0.17179	 -0.03258	  1.26394	706.00897	 24.20	
 13.611	122.431	  1.17956	  0.33545	  0.85912	  1.02847	  0.19641	 -0.03224	  1.26619	706.11102	 24.20	
 13.596	129.640	  1.17923	  0.28877	  0.91413	  0.98588	  0.22926	 -0.03256	  1.26568	706.16602	 24.20	
 13.601	136.825	  1.17855	  0.24564	  0.96448	  0.93883	  0.26508	 -0.03043	  1.26627	706.12402	 24.20	
 13.611	143.999	  1.17161	  0.20709	  1.00378	  0.88214	  0.30426	 -0.02820	  1.25983	706.06000	 24.20	
 13.609	151.210	  1.17570	  0.17769	  1.04513	  0.82798	  0.35306	 -0.02877	  1.26586	706.18298	 24.20	
 13.601	158.353	  1.17161	  0.15259	  1.07206	  0.76374	  0.40487	 -0.03148	  1.26371	706.08502	 24.20	
 13.611	165.583	  1.17136	  0.13277	  1.09474	  0.69981	  0.46045	 -0.03515	  1.26484	706.06201	 24.20	
 13.608	172.853	  1.16808	  0.12114	  1.10600	  0.63329	  0.51900	 -0.03753	  1.26345	706.02600	 24.20	
 15.298	173.587	  1.13457	  0.04852	  1.14228	  0.60804	  0.49294	 -0.04496	  1.26252	706.06201	 24.20	
 15.291	167.167	  1.13722	  0.05953	  1.13203	  0.67284	  0.43525	 -0.04492	  1.26425	706.07300	 24.20	
 15.307	160.676	  1.14712	  0.07661	  1.12129	  0.74404	  0.38103	 -0.04122	  1.27192	706.08698	 24.20	
 15.300	154.261	  1.15642	  0.09729	  1.10231	  0.81280	  0.32841	 -0.03630	  1.28151	706.12097	 24.20	
 15.288	147.854	  1.14656	  0.12494	  1.05809	  0.86423	  0.27835	 -0.03524	  1.26801	706.19501	 24.20	
 15.293	141.428	  1.14415	  0.15844	  1.01481	  0.91784	  0.23433	 -0.03669	  1.26379	706.08502	 24.20	
 15.299	134.985	  1.14540	  0.19586	  0.96987	  0.97149	  0.19385	 -0.03946	  1.26503	706.07898	 24.20	
 15.305	128.583	  1.14822	  0.23830	  0.92040	  1.01960	  0.15887	 -0.04066	  1.26643	706.08197	 24.20	
 15.309	122.142	  1.14921	  0.28602	  0.86533	  1.06000	  0.12980	 -0.04119	  1.26695	706.04901	 24.20	
 15.304	115.711	  1.14575	  0.33683	  0.80292	  1.08909	  0.10610	 -0.04052	  1.26232	706.04498	 24.20	
 15.297	109.291	  1.14611	  0.39270	  0.74116	  1.11406	  0.08827	 -0.04037	  1.26140	706.15601	 24.20	
 15.293	102.897	  1.14859	  0.45123	  0.68025	  1.13596	  0.07394	 -0.04386	  1.26495	706.06500	 24.20	
 15.293	 96.458	  1.14154	  0.50913	  0.61227	  1.13964	  0.06546	 -0.04544	  1.25718	706.18103	 24.20	
 15.300	 90.000	  1.14802	  0.57490	  0.55157	  1.14955	  0.06347	 -0.04962	  1.26436	706.07898	 24.20	
 15.293	 83.542	  1.14394	  0.63734	  0.48854	  1.14140	  0.06809	 -0.05233	  1.26057	706.11798	 24.20	
 15.293	 77.103	  1.14750	  0.70251	  0.43050	  1.13193	  0.07800	 -0.05410	  1.26417	706.02399	 24.20	
 15.297	 70.709	  1.14795	  0.76514	  0.37445	  1.11328	  0.09202	 -0.05503	  1.26625	706.11603	 24.20	
 15.304	 64.289	  1.16122	  0.83652	  0.32312	  1.09886	  0.11277	 -0.05667	  1.28218	706.07898	 24.20	
 15.309	 57.858	  1.14831	  0.88634	  0.27012	  1.05436	  0.13653	 -0.06194	  1.26931	706.05701	 24.20	
 15.305	 51.417	  1.14259	  0.93720	  0.22513	  1.00826	  0.16815	 -0.06436	  1.26436	706.07300	 24.20	
 15.299	 45.015	  1.14259	  0.98714	  0.18286	  0.96268	  0.20263	 -0.06627	  1.26573	706.03198	 24.20	
 15.293	 38.572	  1.13978	  1.02904	  0.14991	  0.90791	  0.24617	 -0.06843	  1.26241	706.14899	 24.20	
 15.288	 32.146	  1.14010	  1.06784	  0.12064	  0.85276	  0.29177	 -0.06617	  1.26475	706.00702	 24.20	
 15.300	 25.739	  1.13454	  1.09579	  0.09411	  0.79106	  0.33817	 -0.06286	  1.26097	705.99500	 24.20	
 15.307	 19.324	  1.13628	  1.12347	  0.07379	  0.72971	  0.39234	 -0.06340	  1.26361	706.00897	 24.20	
 15.291	 12.833	  1.13296	  1.13753	  0.05862	  0.66322	  0.44716	 -0.06420	  1.26274	706.11102	 24.20	
 15.298	  6.413	  1.13099	  1.14622	  0.05001	  0.59884	  0.50611	 -0.06001	  1.26298	706.03198	 24.20	
 15.300	  0.000	  1.13093	  1.14922	  0.04741	  0.53503	  0.56729	 -0.05843	  1.26515	705.93903	 24.20	
 15.298	 -6.413	  1.12679	  1.14024	  0.05225	  0.47338	  0.62875	 -0.05716	  1.26205	706.01703	 24.20	
 15.291	-12.833	  1.12501	  1.12576	  0.05955	  0.41188	  0.68951	 -0.05316	  1.26066	706.15002	 24.20	
 15.307	-19.324	  1.12252	  1.10465	  0.07249	  0.35128	  0.75166	 -0.05168	  1.26067	706.14697	 24.20	
 15.300	-25.739	  1.12235	  1.07827	  0.08899	  0.29490	  0.81158	 -0.04821	  1.26249	706.06299	 24.20	
 15.288	-32.146	  1.11833	  1.03994	  0.11474	  0.24553	  0.86616	 -0.04911	  1.25908	706.08801	 24.20	
 15.293	-38.572	  1.11861	  0.99991	  0.14334	  0.19603	  0.92228	 -0.04851	  1.26218	706.06000	 24.20	
 15.299	-45.015	  1.11733	  0.95285	  0.18027	  0.15569	  0.97210	 -0.04883	  1.26223	706.06799	 24.20	
 15.305	-51.417	  1.11446	  0.89880	  0.21908	  0.11801	  1.01448	 -0.04908	  1.26004	706.07098	 24.20	
 15.309	-57.858	  1.11212	  0.84168	  0.26412	  0.08703	  1.05282	 -0.04845	  1.25917	706.01099	 24.20	
 15.304	-64.289	  1.11459	  0.78425	  0.31516	  0.06226	  1.08720	 -0.04753	  1.26212	706.06000	 24.20	
 15.297	-70.709	  1.11252	  0.72036	  0.36888	  0.04166	  1.11179	 -0.04567	  1.26185	706.11603	 24.20	
 15.293	-77.103	  1.11225	  0.65727	  0.42607	  0.02721	  1.12951	 -0.04657	  1.26165	706.13599	 24.20	
 15.293	-83.542	  1.11442	  0.59491	  0.48613	  0.01913	  1.14178	 -0.04729	  1.26416	706.08197	 24.20	
 15.300	-90.000	  1.11564	  0.53017	  0.54873	  0.01512	  1.14641	 -0.04936	  1.26539	706.00098	 24.20	
 15.293	-96.458	  1.11339	  0.46650	  0.61114	  0.01810	  1.13971	 -0.05258	  1.26201	706.20398	 24.20	
 15.293	-102.897	  1.11341	  0.40635	  0.67407	  0.02695	  1.12721	 -0.05329	  1.26121	706.28003	 24.20	
 15.297	-109.291	  1.11174	  0.34988	  0.73503	  0.04212	  1.10643	 -0.05539	  1.25949	706.07898	 24.20	
 15.304	-115.711	  1.11514	  0.29821	  0.79743	  0.06327	  1.08262	 -0.05490	  1.26403	706.18103	 24.20	
 15.309	-122.142	  1.11981	  0.25003	  0.85941	  0.09033	  1.05159	 -0.05332	  1.26595	706.13202	 24.20	
 15.305	-128.583	  1.11666	  0.20518	  0.91146	  0.12220	  1.00771	 -0.05100	  1.26156	706.24597	 24.20	
 15.299	-134.985	  1.12114	  0.16488	  0.96510	  0.15736	  0.96690	 -0.04982	  1.26513	706.27600	 24.20	
 15.293	-141.428	  1.12143	  0.13130	  1.00989	  0.20186	  0.91411	 -0.04888	  1.26286	706.10498	 24.20	
 15.288	-147.854	  1.12112	  0.10261	  1.04762	  0.24893	  0.85690	 -0.04814	  1.26100	706.12701	 24.20	
 15.300	-154.261	  1.14653	  0.08013	  1.10377	  0.30565	  0.81690	 -0.04816	  1.28799	706.22198	 24.20	
 15.307	-160.676	  1.14745	  0.06221	  1.13033	  0.36171	  0.75491	 -0.04795	  1.28649	706.03699	 24.20	
 15.291	-167.167	  1.14728	  0.05047	  1.14767	  0.42298	  0.68859	 -0.04721	  1.28367	706.05200	 24.20	
 15.298	-173.587	  1.15043	  0.04571	  1.16069	  0.48703	  0.62670	 -0.04752	  1.28553	706.14899	 24.20	
 15.300	180.000	  1.15031	  0.04408	  1.16267	  0.55045	  0.56269	 -0.04635	  1.28232	706.09003	 24.20	
 17.000	180.000	  1.11772	 -0.00823	  1.19735	  0.53338	  0.54348	 -0.04775	  1.28588	706.09399	 24.20	
 16.990	-174.179	  1.11154	 -0.01073	  1.18923	  0.46719	  0.60168	 -0.04922	  1.28164	706.10797	 24.20	
 17.009	-168.383	  1.10439	 -0.00841	  1.17407	  0.40264	  0.65922	 -0.05024	  1.27573	705.97498	 24.20	
 17.000	-162.596	  1.10698	  0.00786	  1.15982	  0.34729	  0.72512	 -0.04913	  1.27930	706.04498	 24.20	
 16.990	-156.759	  1.10545	  0.01893	  1.13640	  0.28943	  0.78579	 -0.05150	  1.28079	706.01501	 24.20	
 16.995	-150.919	  1.09982	  0.04200	  1.10174	  0.23783	  0.84217	 -0.05357	  1.27609	706.09003	 24.20	
 16.988	-145.161	  1.10206	  0.06122	  1.07001	  0.18468	  0.90219	 -0.05402	  1.28199	706.04797	 24.20	
 17.014	-139.343	  1.10149	  0.09706	  1.02880	  0.14568	  0.95663	 -0.05438	  1.28225	706.01501	 24.20	
 17.007	-133.546	  1.09939	  0.13216	  0.98069	  0.10703	  1.00448	 -0.05389	  1.28115	705.98999	 24.20	
 17.001	-127.699	  1.09596	  0.17089	  0.92708	  0.07157	  1.04726	 -0.05368	  1.27858	706.02899	 24.20	
 17.006	-121.937	  1.09275	  0.21210	  0.87064	  0.03855	  1.08549	 -0.05576	  1.27812	705.95001	 24.20	
 17.002	-116.134	  1.09250	  0.25753	  0.81214	  0.01005	  1.11965	 -0.05779	  1.27957	705.92401	 24.20	
 17.001	-110.310	  1.09128	  0.31177	  0.75286	 -0.00577	  1.14563	 -0.05636	  1.27781	705.95001	 24.20	
 16.988	-104.517	  1.09735	  0.36809	  0.69446	 -0.02225	  1.17262	 -0.05547	  1.28629	705.91602	 24.20	
 17.008	-98.662	  1.09367	  0.42483	  0.62950	 -0.03197	  1.18358	 -0.05262	  1.28174	705.82098	 24.30	
 16.996	-92.909	  1.09462	  0.48655	  0.56823	 -0.03478	  1.19075	 -0.05011	  1.28281	705.92798	 24.30	
 16.996	-87.091	  1.09382	  0.54766	  0.50524	 -0.03687	  1.19130	 -0.04762	  1.28195	705.91901	 24.20	
 17.012	-81.253	  1.09247	  0.60949	  0.44211	 -0.03666	  1.18558	 -0.04687	  1.28097	706.08698	 24.20	
 16.988	-75.483	  1.09258	  0.67256	  0.38634	 -0.02352	  1.17161	 -0.04394	  1.28037	705.92798	 24.30	
 17.001	-69.690	  1.09650	  0.73882	  0.33093	 -0.00934	  1.15682	 -0.04647	  1.28509	706.03198	 24.30	
 17.002	-63.866	  1.09644	  0.80020	  0.27983	  0.01268	  1.12958	 -0.04539	  1.28355	705.91302	 24.30	
 17.006	-58.063	  1.09578	  0.85859	  0.23083	  0.03794	  1.09556	 -0.04874	  1.28159	705.96698	 24.20	
 17.001	-52.301	  1.09837	  0.91659	  0.18611	  0.06715	  1.05889	 -0.04832	  1.28267	705.96399	 24.20	
 17.007	-46.454	  1.09989	  0.97092	  0.14540	  0.10170	  1.01576	 -0.04850	  1.28472	705.80103	 24.20	
 17.014	-40.657	  1.09921	  1.01816	  0.10946	  0.14018	  0.96661	 -0.04702	  1.28164	705.87701	 24.30	
 16.988	-34.839	  1.10243	  1.06309	  0.07830	  0.18455	  0.91498	 -0.04747	  1.28197	705.94702	 24.30	
 16.995	-29.081	  1.10395	  1.10083	  0.05373	  0.23406	  0.85906	 -0.04697	  1.28174	705.81702	 24.30	
 16.990	-23.241	  1.10455	  1.13236	  0.02965	  0.28389	  0.79970	 -0.04954	  1.28181	705.92200	 24.30	
 17.000	-17.404	  1.10765	  1.15992	  0.01431	  0.34044	  0.74071	 -0.04953	  1.28283	705.83398	 24.30	
 17.009	-11.617	  1.11231	  1.18361	  0.00153	  0.40037	  0.68086	 -0.05086	  1.28790	705.93799	 24.30	
 16.990	 -5.821	  1.11279	  1.19456	 -0.00826	  0.45875	  0.61710	 -0.05590	  1.28580	705.89600	 24.30	
 17.000	  0.000	  1.11346	  1.19879	 -0.00994	  0.52163	  0.55554	 -0.05787	  1.28410	705.93500	 24.30	
 16.990	  5.821	  1.11712	  1.19942	 -0.00463	  0.58788	  0.49664	 -0.05916	  1.28701	706.01501	 24.30	
 17.009	 11.617	  1.11423	  1.18859	  0.00025	  0.64861	  0.43598	 -0.06025	  1.28287	705.93903	 24.30	
 17.000	 17.404	  1.11685	  1.17474	  0.01374	  0.71336	  0.38165	 -0.05986	  1.28307	705.92700	 24.30	
 16.990	 23.241	  1.11768	  1.15217	  0.03239	  0.77716	  0.32798	 -0.06030	  1.28228	705.97601	 24.30	
 16.995	 29.081	  1.11911	  1.12356	  0.05413	  0.83739	  0.27823	 -0.06144	  1.28191	705.87701	 24.30	
 16.988	 34.839	  1.11733	  1.08693	  0.08097	  0.89301	  0.23185	 -0.06349	  1.27762	705.94397	 24.30	
 17.014	 40.657	  1.12833	  1.05628	  0.11210	  0.95791	  0.18927	 -0.07019	  1.28928	705.82599	 24.30	
 17.007	 46.454	  1.11993	  1.00212	  0.14634	  0.99968	  0.14957	 -0.06868	  1.27895	706.15802	 24.30	
 17.001	 52.301	  1.12730	  0.95683	  0.18912	  1.05138	  0.11762	 -0.06794	  1.28464	706.10199	 24.30	
 17.006	 58.063	  1.12637	  0.90136	  0.23006	  1.09082	  0.08525	 -0.06412	  1.28477	706.03699	 24.30	
 17.002	 63.866	  1.13172	  0.84754	  0.28362	  1.12998	  0.06460	 -0.05950	  1.28810	706.02100	 24.30	
 17.001	 69.690	  1.12597	  0.78232	  0.33466	  1.15124	  0.04474	 -0.05850	  1.28010	705.96399	 24.30	
 16.988	 75.483	  1.12721	  0.72128	  0.38858	  1.17375	  0.02786	 -0.05675	  1.28182	705.98700	 24.30	
 17.012	 81.253	  1.12702	  0.65891	  0.44544	  1.18794	  0.01688	 -0.05680	  1.28027	706.06897	 24.30	
 16.996	 87.091	  1.13054	  0.59486	  0.50499	  1.19939	  0.00621	 -0.05534	  1.28461	705.98401	 24.30	
 16.996	 92.909	  1.13216	  0.53405	  0.57097	  1.20012	  0.01034	 -0.05092	  1.28462	705.96698	 24.30	
 17.008	 98.662	  1.13005	  0.47184	  0.63065	  1.19316	  0.01188	 -0.04746	  1.28347	705.85999	 24.30	
 16.988	104.517	  1.13165	  0.41161	  0.69477	  1.18061	  0.02010	 -0.04645	  1.28458	705.89301	 24.30	
 17.001	110.310	  1.12783	  0.35058	  0.75498	  1.15811	  0.02927	 -0.04740	  1.28218	706.04901	 24.30	
 17.002	116.134	  1.12770	  0.29811	  0.81726	  1.13130	  0.05091	 -0.04642	  1.28188	706.03699	 24.30	
 17.006	121.937	  1.12536	  0.24814	  0.87473	  1.09481	  0.07704	 -0.04588	  1.27884	705.95001	 24.30	
 17.001	127.699	  1.12455	  0.19728	  0.93031	  1.05668	  0.09894	 -0.04829	  1.27950	706.11798	 24.30	
 17.007	133.546	  1.12536	  0.15417	  0.98487	  1.01281	  0.13161	 -0.04795	  1.28190	705.90802	 24.30	
 17.014	139.343	  1.12108	  0.11978	  1.02901	  0.95910	  0.17284	 -0.04398	  1.27650	705.97998	 24.30	
 16.988	145.161	  1.12190	  0.08416	  1.07268	  0.90490	  0.21339	 -0.04118	  1.27992	705.99200	 24.30	
 16.995	150.919	  1.12211	  0.05496	  1.11046	  0.84834	  0.25896	 -0.04240	  1.28123	705.99200	 24.30	
 16.990	156.759	  1.12156	  0.03248	  1.14132	  0.78807	  0.30976	 -0.04435	  1.28278	706.03699	 24.30	
 17.000	162.596	  1.11881	  0.01823	  1.16320	  0.72334	  0.36668	 -0.04731	  1.27970	706.08002	 24.30	
 17.009	168.383	  1.11302	 -0.00361	  1.17746	  0.65510	  0.41706	 -0.05059	  1.27648	706.05200	 24.30	
 16.990	174.179	  1.11751	 -0.00560	  1.19084	  0.59648	  0.48020	 -0.04890	  1.28245	706.00897	 24.30	
 18.709	174.675	  1.07106	 -0.08008	  1.21642	  0.56249	  0.44504	 -0.04844	  1.27852	706.01398	 24.30	
 18.703	169.441	  1.07153	 -0.07149	  1.20594	  0.62396	  0.38919	 -0.04811	  1.27581	706.08002	 24.30	
 18.691	164.085	  1.07571	 -0.05855	  1.19332	  0.69007	  0.33331	 -0.04702	  1.27869	706.00897	 24.30	
 18.706	158.818	  1.07878	 -0.04274	  1.17484	  0.75638	  0.28061	 -0.04426	  1.28093	706.14899	 24.30	
 18.695	153.537	  1.08088	 -0.01963	  1.14736	  0.81806	  0.23236	 -0.04008	  1.28154	705.98297	 24.30	
 18.704	148.255	  1.08264	  0.00588	  1.11455	  0.87765	  0.18567	 -0.03821	  1.28212	706.09399	 24.30	
 18.698	142.952	  1.08666	  0.03596	  1.07861	  0.93763	  0.14263	 -0.04312	  1.28584	705.97601	 24.30	
 18.699	137.625	  1.07856	  0.07004	  1.02501	  0.98335	  0.10219	 -0.04376	  1.27515	705.96698	 24.30	
 18.705	132.343	  1.08394	  0.10836	  0.98104	  1.03556	  0.06720	 -0.04437	  1.27997	705.95001	 24.30	
 18.713	127.067	  1.08834	  0.15025	  0.93244	  1.08404	  0.03582	 -0.04529	  1.28514	705.99200	 24.30	
 18.700	121.794	  1.09051	  0.19761	  0.87668	  1.12476	  0.00981	 -0.04500	  1.28616	705.95300	 24.30	
 18.698	116.504	  1.08756	  0.24516	  0.81529	  1.15489	 -0.01428	 -0.04350	  1.28322	705.98999	 24.30	
 18.707	111.165	  1.08896	  0.29720	  0.75481	  1.18372	 -0.03468	 -0.04381	  1.28454	705.99298	 24.30	
 18.690	105.863	  1.08786	  0.35382	  0.69189	  1.20312	 -0.04650	 -0.04152	  1.28311	705.94501	 24.30	
 18.696	100.583	  1.08709	  0.41087	  0.62849	  1.21592	 -0.05682	 -0.04448	  1.28088	705.92700	 24.30	
 18.700	 95.309	  1.09179	  0.47233	  0.56798	  1.22926	 -0.06286	 -0.04700	  1.28574	705.92200	 24.30	
 18.700	 90.000	  1.08833	  0.53273	  0.50367	  1.22888	 -0.06525	 -0.05065	  1.28344	705.93500	 24.30	
 18.700	 84.691	  1.08601	  0.59384	  0.44157	  1.22284	 -0.06256	 -0.05460	  1.28094	705.86798	 24.30	
 18.696	 79.417	  1.08885	  0.65855	  0.38350	  1.21630	 -0.05565	 -0.05511	  1.28493	705.88300	 24.30	
 18.690	 74.137	  1.08738	  0.71945	  0.32554	  1.19964	 -0.04656	 -0.05409	  1.28437	706.05200	 24.30	
 18.707	 68.835	  1.08377	  0.77964	  0.26973	  1.17534	 -0.03242	 -0.05761	  1.28191	705.92700	 24.30	
 18.698	 63.496	  1.07964	  0.83704	  0.21733	  1.14259	 -0.01198	 -0.05823	  1.27862	705.96198	 24.30	
 18.700	 58.206	  1.07771	  0.89346	  0.16956	  1.10696	  0.01169	 -0.06157	  1.27668	706.01703	 24.30	
 18.713	 52.933	  1.08241	  0.95309	  0.12524	  1.07220	  0.03881	 -0.06415	  1.28395	705.91101	 24.30	
 18.705	 47.657	  1.08473	  1.00748	  0.08608	  1.02964	  0.07283	 -0.06710	  1.28762	706.00098	 24.30	
 18.699	 42.375	  1.07801	  1.04892	  0.04967	  0.97479	  0.10831	 -0.06826	  1.28104	705.88300	 24.30	
 18.698	 37.048	  1.07405	  1.08858	  0.01708	  0.91887	  0.14834	 -0.06681	  1.27820	705.89899	 24.30	
 18.704	 31.745	  1.07605	  1.12935	 -0.01126	  0.86334	  0.19353	 -0.06295	  1.28317	705.90399	 24.30	
 18.695	 26.463	  1.07316	  1.15806	 -0.03520	  0.80170	  0.23990	 -0.05784	  1.28091	705.90698	 24.30	
 18.706	 21.182	  1.07298	  1.18559	 -0.05556	  0.74192	  0.29009	 -0.05483	  1.28291	705.96698	 24.30	
 18.691	 15.915	  1.07373	  1.20668	 -0.07113	  0.67913	  0.34408	 -0.05642	  1.28618	705.86499	 24.30	
 18.703	 10.559	  1.07438	  1.22299	 -0.08259	  0.61505	  0.40202	 -0.05605	  1.28871	705.77802	 24.30	
 18.709	  5.325	  1.06856	  1.22530	 -0.08958	  0.54954	  0.45774	 -0.05539	  1.28316	705.96100	 24.30	
 18.700	  0.000	  1.06446	  1.22266	 -0.09080	  0.48345	  0.51828	 -0.05184	  1.28022	705.97498	 24.30	
 18.709	 -5.325	  1.06436	  1.21901	 -0.08948	  0.42164	  0.57988	 -0.05058	  1.28194	705.91901	 24.30	
 18.703	-10.559	  1.06645	  1.21235	 -0.08471	  0.36258	  0.64220	 -0.04801	  1.28548	705.95599	 24.30	
 18.691	-15.915	  1.06228	  1.19138	 -0.07242	  0.30233	  0.70455	 -0.04668	  1.28300	705.86603	 24.30	
 18.706	-21.182	  1.05862	  1.16593	 -0.05731	  0.24705	  0.76402	 -0.04541	  1.28126	705.85999	 24.30	
 18.695	-26.463	  1.05971	  1.13862	 -0.03783	  0.19557	  0.82489	 -0.04413	  1.28396	705.90802	 24.30	
 18.704	-31.745	  1.05571	  1.10056	 -0.01500	  0.14532	  0.88100	 -0.04445	  1.28172	706.03802	 24.30	
 18.698	-37.048	  1.05937	  1.06448	  0.01424	  0.10029	  0.94009	 -0.04390	  1.28631	705.96399	 24.30	
 18.699	-42.375	  1.05745	  1.01736	  0.04654	  0.05866	  0.99071	 -0.04523	  1.28500	705.92700	 24.30	
 18.705	-47.657	  1.05127	  0.96321	  0.08242	  0.02109	  1.03392	 -0.04401	  1.27960	706.01703	 24.30	
 18.713	-52.933	  1.05558	  0.91440	  0.12287	 -0.01252	  1.08314	 -0.04379	  1.28834	706.09601	 24.30	
 18.700	-58.206	  1.05388	  0.85545	  0.16808	 -0.04042	  1.11944	 -0.04436	  1.28621	705.95203	 24.30	
 18.698	-63.496	  1.05379	  0.79622	  0.21740	 -0.06320	  1.15118	 -0.04358	  1.28605	706.05402	 24.30	
 18.707	-68.835	  1.05141	  0.73308	  0.26797	 -0.08361	  1.17639	 -0.04213	  1.28417	706.09003	 24.30	
 18.690	-74.137	  1.05089	  0.66920	  0.32352	 -0.09795	  1.19654	 -0.04141	  1.28408	706.13300	 24.30	
 18.696	-79.417	  1.05017	  0.60554	  0.38065	 -0.10913	  1.21081	 -0.04065	  1.28318	706.10199	 24.30	
 18.700	-84.691	  1.04995	  0.54236	  0.43940	 -0.11617	  1.21923	 -0.04340	  1.28361	706.03802	 24.30	
 18.700	-90.000	  1.04612	  0.47738	  0.49902	 -0.11781	  1.21702	 -0.04428	  1.27877	705.81201	 24.30	
 18.700	-95.309	  1.04895	  0.41726	  0.56307	 -0.11586	  1.21730	 -0.04674	  1.28330	705.81702	 24.30	
 18.696	-100.583	  1.05155	  0.35910	  0.62705	 -0.10921	  1.21034	 -0.04931	  1.28649	705.86798	 24.30	
 18.690	-105.863	  1.05587	  0.30370	  0.69211	 -0.09743	  1.19780	 -0.05208	  1.28955	705.85101	 24.30	
 18.707	-111.165	  1.05143	  0.24857	  0.75117	 -0.08163	  1.17160	 -0.05371	  1.28443	705.88800	 24.30	
 18.698	-116.504	  1.05370	  0.19889	  0.81332	 -0.05968	  1.14480	 -0.05635	  1.28515	706.12402	 24.30	
 18.700	-121.794	  1.05823	  0.15056	  0.87539	 -0.03785	  1.11659	 -0.05523	  1.29051	706.10797	 24.30	
 18.713	-127.067	  1.05123	  0.10737	  0.92417	 -0.00677	  1.06836	 -0.05293	  1.28027	705.93799	 24.30	
 18.705	-132.343	  1.05209	  0.06935	  0.97574	  0.02788	  1.02383	 -0.05525	  1.27900	705.90802	 24.30	
 18.699	-137.625	  1.05521	  0.03551	  1.02529	  0.06692	  0.97617	 -0.05357	  1.28024	706.00098	 24.30	
 18.698	-142.952	  1.06198	  0.00525	  1.07517	  0.10959	  0.92902	 -0.05354	  1.28704	706.04602	 24.30	
 18.704	-148.255	  1.06173	 -0.02176	  1.11236	  0.15520	  0.87213	 -0.05221	  1.28542	706.12701	 24.30	
 18.695	-153.537	  1.06266	 -0.04332	  1.14482	  0.20614	  0.81284	 -0.05219	  1.28249	706.10199	 24.40	
 18.706	-158.818	  1.06599	 -0.06123	  1.17405	  0.25909	  0.75337	 -0.04922	  1.28449	706.09601	 24.30	
 18.691	-164.085	  1.06709	 -0.07211	  1.19356	  0.31605	  0.69287	 -0.04994	  1.28316	706.01501	 24.30	
 18.703	-169.441	  1.07341	 -0.08365	  1.21539	  0.37723	  0.63134	 -0.04971	  1.28884	706.07397	 24.30	
 18.709	-174.675	  1.07472	 -0.08712	  1.22406	  0.43774	  0.56969	 -0.04694	  1.28837	705.92999	 24.30	
 18.700	180.000	  1.07372	 -0.08606	  1.22411	  0.50047	  0.50799	 -0.04747	  1.28472	706.00000	 24.40	
 20.400	180.000	  1.02696	 -0.17016	  1.25000	  0.46123	  0.46703	 -0.04898	  1.28745	706.08002	 24.40	
 20.401	-175.153	  1.01841	 -0.16961	  1.23934	  0.39630	  0.52389	 -0.04532	  1.28012	705.93500	 24.40	
 20.407	-170.264	  1.01613	 -0.16876	  1.23165	  0.33393	  0.58484	 -0.04450	  1.28007	706.01398	 24.40	
 20.410	-165.423	  1.00746	 -0.15910	  1.20872	  0.27297	  0.64306	 -0.04688	  1.27163	706.00299	 24.30	
 20.392	-160.496	  1.00081	 -0.14390	  1.18201	  0.21674	  0.70096	 -0.04840	  1.26415	705.98602	 24.30	
 20.401	-155.705	  1.00000	 -0.13077	  1.15958	  0.16332	  0.76001	 -0.04922	  1.26567	706.04797	 24.40	
 20.405	-150.835	  0.99910	 -0.11235	  1.13069	  0.11258	  0.82124	 -0.05178	  1.26781	706.01099	 24.30	
 20.397	-145.903	  0.99671	 -0.08882	  1.09320	  0.06608	  0.87679	 -0.05124	  1.26627	706.00897	 24.30	
 20.392	-141.062	  0.99643	 -0.06158	  1.05393	  0.02321	  0.93058	 -0.05376	  1.26776	706.02100	 24.30	
 20.396	-136.227	  0.99222	 -0.03120	  1.00659	 -0.01743	  0.97966	 -0.05341	  1.26473	705.96997	 24.30	
 20.408	-131.372	  0.99344	  0.00221	  0.96126	 -0.05407	  1.03024	 -0.05467	  1.26918	706.04602	 24.30	
 20.410	-126.511	  0.98912	  0.03930	  0.90527	 -0.08704	  1.06985	 -0.05304	  1.26562	706.07898	 24.30	
 20.400	-121.604	  0.99779	  0.08338	  0.85764	 -0.11551	  1.11882	 -0.05396	  1.27763	706.12097	 24.30	
 20.403	-116.741	  1.00055	  0.12945	  0.80138	 -0.14087	  1.15641	 -0.05268	  1.28193	706.09698	 24.30	
 20.413	-111.900	  0.98417	  0.17608	  0.72970	 -0.15790	  1.16632	 -0.04963	  1.26192	706.06201	 24.30	
 20.398	-107.004	  0.98524	  0.22800	  0.66938	 -0.17541	  1.19096	 -0.04970	  1.26524	706.08801	 24.30	
 20.394	-102.132	  0.98726	  0.28345	  0.60836	 -0.18876	  1.21141	 -0.04859	  1.26887	706.07397	 24.30	
 20.403	-97.332	  0.98275	  0.33803	  0.54477	 -0.19695	  1.21779	 -0.04756	  1.26340	706.14899	 24.30	
 20.392	-92.440	  0.98366	  0.39823	  0.48399	 -0.19994	  1.22454	 -0.04491	  1.26412	706.04602	 24.30	
 20.392	-87.560	  0.98178	  0.45830	  0.42154	 -0.20070	  1.22286	 -0.04095	  1.26263	706.08002	 24.30	
 20.403	-82.668	  0.98320	  0.52095	  0.36166	 -0.19861	  1.22105	 -0.03833	  1.26467	706.05701	 24.30	
 20.394	-77.868	  0.98327	  0.58300	  0.30581	 -0.18929	  1.20996	 -0.03623	  1.26364	706.14697	 24.30	
 20.398	-72.996	  0.98531	  0.64771	  0.24986	 -0.17974	  1.19746	 -0.03828	  1.26652	706.16602	 24.30	
 20.413	-68.100	  0.98296	  0.70806	  0.19565	 -0.16339	  1.17257	 -0.03910	  1.26158	706.14203	 24.30	
 20.403	-63.259	  0.98367	  0.76939	  0.14766	 -0.14200	  1.14532	 -0.03972	  1.26169	706.12500	 24.30	
 20.400	-58.396	  0.98915	  0.83269	  0.10060	 -0.12021	  1.11876	 -0.04145	  1.26680	706.06299	 24.30	
 20.410	-53.489	  0.98753	  0.88773	  0.05609	 -0.09364	  1.07983	 -0.04073	  1.26434	706.17200	 24.30	
 20.408	-48.628	  0.98723	  0.94107	  0.01620	 -0.06288	  1.03762	 -0.04185	  1.26398	706.02600	 24.30	
 20.396	-43.773	  0.98945	  0.99216	 -0.01823	 -0.02608	  0.99246	 -0.04107	  1.26376	706.03198	 24.30	
 20.392	-38.938	  0.99427	  1.04235	 -0.05065	  0.01316	  0.94489	 -0.04085	  1.26772	706.07098	 24.30	
 20.397	-34.097	  0.99169	  1.08003	 -0.07979	  0.05458	  0.88924	 -0.04188	  1.26286	706.08502	 24.30	
 20.405	-29.165	  0.99850	  1.12470	 -0.10631	  0.10081	  0.83631	 -0.04412	  1.26964	706.12799	 24.30	
 20.401	-24.295	  0.99850	  1.15588	 -0.12662	  0.15124	  0.77697	 -0.04305	  1.26775	706.09302	 24.30	
 20.392	-19.504	  1.00045	  1.18242	 -0.14370	  0.20298	  0.71787	 -0.04351	  1.26901	706.06201	 24.30	
 20.410	-14.577	  0.99947	  1.20236	 -0.15659	  0.25774	  0.65539	 -0.04352	  1.26706	706.21503	 24.30	
 20.407	 -9.736	  1.00267	  1.21992	 -0.16740	  0.31614	  0.59466	 -0.04369	  1.26808	706.16699	 24.30	
 20.401	 -4.847	  1.00665	  1.23265	 -0.17259	  0.37796	  0.53477	 -0.04557	  1.27087	706.07703	 24.30	
 20.400	  0.000	  1.00343	  1.23226	 -0.17412	  0.43621	  0.47264	 -0.04639	  1.26556	706.07300	 24.30	
 20.401	  4.847	  1.01191	  1.24034	 -0.17352	  0.50248	  0.41582	 -0.04833	  1.27444	706.06299	 24.30	
 20.407	  9.736	  1.00625	  1.22601	 -0.16658	  0.56225	  0.35505	 -0.04994	  1.26544	706.03802	 24.30	
 20.410	 14.577	  1.01007	  1.21743	 -0.15659	  0.62773	  0.30034	 -0.04991	  1.26868	705.93597	 24.30	
 20.392	 19.504	  1.01314	  1.20155	 -0.14227	  0.69314	  0.24613	 -0.04991	  1.27067	706.00000	 24.30	
 20.401	 24.295	  1.01235	  1.17628	 -0.12506	  0.75197	  0.19663	 -0.05239	  1.26664	706.03802	 24.30	
 20.405	 29.165	  1.01427	  1.14885	 -0.10380	  0.81447	  0.14774	 -0.05481	  1.26821	706.00897	 24.30	
 20.397	 34.097	  1.01601	  1.11496	 -0.07837	  0.87435	  0.10264	 -0.05969	  1.26819	706.00000	 24.30	
 20.392	 38.938	  1.02096	  1.08007	 -0.04935	  0.93263	  0.06276	 -0.06110	  1.27204	705.97198	 24.30	
 20.396	 43.773	  1.02046	  1.03486	 -0.01700	  0.98295	  0.02574	 -0.06146	  1.26941	705.89697	 24.30	
 20.408	 48.628	  1.01896	  0.98605	  0.01809	  1.03026	 -0.00924	 -0.06106	  1.26734	706.01398	 24.30	
 20.410	 53.489	  1.01575	  0.92948	  0.05732	  1.07031	 -0.04085	 -0.05787	  1.26132	705.98401	 24.30	
 20.400	 58.396	  1.01745	  0.87585	  0.10132	  1.11067	 -0.06800	 -0.05830	  1.26185	705.97601	 24.30	
 20.403	 63.259	  1.03002	  0.82762	  0.14978	  1.15705	 -0.09140	 -0.05458	  1.27665	706.08502	 24.30	
 20.413	 68.100	  1.03165	  0.76874	  0.19968	  1.18720	 -0.11116	 -0.05533	  1.27727	706.06201	 24.30	
 20.398	 72.996	  1.01984	  0.69860	  0.25071	  1.19555	 -0.12397	 -0.05157	  1.26164	705.96899	 24.30	
 20.394	 77.868	  1.02548	  0.64028	  0.30721	  1.21876	 -0.13615	 -0.05214	  1.26714	705.92999	 24.30	
 20.403	 82.668	  1.03690	  0.58534	  0.36710	  1.24448	 -0.14770	 -0.05097	  1.28103	705.98297	 24.30	
 20.392	 87.560	  1.02519	  0.51724	  0.42297	  1.23562	 -0.14840	 -0.04986	  1.26564	705.99500	 24.30	
 20.392	 92.440	  1.02473	  0.45480	  0.48532	  1.23455	 -0.14662	 -0.04697	  1.26327	705.98700	 24.40	
 20.403	 97.332	  1.02750	  0.39625	  0.54858	  1.23299	 -0.14418	 -0.04269	  1.26755	705.97198	 24.30	
 20.394	102.132	  1.02686	  0.33853	  0.60971	  1.22079	 -0.13601	 -0.03819	  1.26543	706.08002	 24.30	
 20.398	107.004	  1.02719	  0.28295	  0.67235	  1.20617	 -0.12527	 -0.03816	  1.26620	706.03400	 24.30	
 20.413	111.900	  1.03138	  0.22945	  0.73722	  1.18974	 -0.11137	 -0.03979	  1.27263	705.94397	 24.30	
 20.403	116.741	  1.02895	  0.17966	  0.79534	  1.16003	 -0.09274	 -0.04051	  1.26880	705.99799	 24.30	
 20.400	121.604	  1.02884	  0.13030	  0.85451	  1.12774	 -0.07121	 -0.03841	  1.26909	706.02301	 24.30	
 20.410	126.511	  1.02298	  0.08436	  0.90650	  1.08398	 -0.04506	 -0.04037	  1.26394	705.94397	 24.30	
 20.408	131.372	  1.02496	  0.04403	  0.96221	  1.04329	 -0.01486	 -0.04068	  1.26679	705.91901	 24.30	
 20.396	136.227	  1.02861	  0.00734	  1.01456	  0.99880	  0.02011	 -0.04106	  1.27035	705.93799	 24.30	
 20.392	141.062	  1.02465	 -0.02674	  1.05661	  0.94494	  0.05616	 -0.04067	  1.26618	705.93799	 24.30	
 20.397	145.903	  1.02207	 -0.05713	  1.09626	  0.88974	  0.09570	 -0.04031	  1.26591	705.88202	 24.30	
 20.405	150.835	  1.01853	 -0.08451	  1.12970	  0.82808	  0.13999	 -0.03852	  1.26289	706.04797	 24.30	
 20.401	155.705	  1.02108	 -0.10852	  1.16504	  0.77113	  0.18740	 -0.04084	  1.26764	705.87598	 24.30	
 20.392	160.496	  1.01685	 -0.12622	  1.18559	  0.70837	  0.23603	 -0.04258	  1.26411	705.95300	 24.30	
 20.410	165.423	  1.02527	 -0.14595	  1.21796	  0.64980	  0.29084	 -0.04559	  1.27791	705.78601	 24.30	
 20.407	170.264	  1.02306	 -0.15648	  1.23068	  0.58577	  0.34636	 -0.04806	  1.27722	705.82599	 24.30	
 20.401	175.153	  1.00719	 -0.16119	  1.22088	  0.51549	  0.39946	 -0.04831	  1.25918	705.99799	 24.30	
  0.141	 45.000	  1.27867	  0.70077	  0.69494	  0.68728	  0.70453	  0.01239	  1.26856	705.94702	 24.30	
  4.001	128.691	  1.27071	  0.59087	  0.76248	  0.77771	  0.57557	  0.00897	  1.26278	705.90399	 24.30	
  4.002	 76.995	  1.27472	  0.71331	  0.64141	  0.80905	  0.55378	  0.00432	  1.26508	705.91901	 24.30	
  4.002	 25.892	  1.27110	  0.81089	  0.54867	  0.72435	  0.62227	  0.00111	  1.26422	705.87598	 24.30	
  4.002	-25.892	  1.26994	  0.80764	  0.54905	  0.59673	  0.74743	  0.00207	  1.26525	705.84302	 24.30	
  4.002	-76.995	  1.26737	  0.70273	  0.63975	  0.52284	  0.82713	  0.00263	  1.26406	705.96198	 24.30	
  4.001	-128.691	  1.26479	  0.58029	  0.76227	  0.54831	  0.79362	  0.00240	  1.26061	706.03400	 24.30	
  4.000	180.000	  1.26745	  0.53582	  0.82077	  0.65959	  0.67887	  0.00432	  1.26125	705.90399	 24.30	
  8.000	180.000	  1.24646	  0.36457	  0.95783	  0.63455	  0.65214	 -0.00957	  1.26491	705.96899	 24.30	
  7.991	-152.370	  1.24643	  0.39022	  0.92298	  0.49709	  0.79400	 -0.01151	  1.26756	705.91400	 24.30	
  7.997	-124.550	  1.24050	  0.47269	  0.81939	  0.39249	  0.90704	 -0.01286	  1.26589	706.01801	 24.30	
  8.006	-96.837	  1.25127	  0.60569	  0.68770	  0.34795	  0.97207	 -0.01523	  1.27779	705.99298	 24.30	
  7.988	-69.228	  1.25367	  0.75363	  0.54702	  0.36383	  0.95628	 -0.01489	  1.28017	705.89899	 24.30	
  7.997	-41.563	  1.24565	  0.87622	  0.43143	  0.43504	  0.86458	 -0.01513	  1.27067	706.01398	 24.30	
  8.008	-13.821	  1.24423	  0.94962	  0.36939	  0.55761	  0.72948	 -0.01849	  1.26614	705.86499	 24.30	
  8.008	 13.821	  1.24729	  0.95473	  0.36941	  0.70382	  0.58743	 -0.02033	  1.26519	706.00702	 24.30	
  7.997	 41.563	  1.24999	  0.88683	  0.43006	  0.83892	  0.46909	 -0.01861	  1.26510	705.99200	 24.30	
  7.988	 69.228	  1.25112	  0.76412	  0.54009	  0.92932	  0.39589	 -0.01233	  1.26415	705.89001	 24.30	
  8.006	 96.837	  1.26584	  0.62769	  0.68734	  0.96124	  0.38396	 -0.00692	  1.27844	705.96899	 24.30	
  7.997	124.550	  1.26579	  0.49624	  0.82803	  0.90613	  0.42817	 -0.00508	  1.27917	705.97998	 24.30	
  7.991	152.370	  1.26280	  0.40422	  0.93037	  0.78730	  0.52596	 -0.00395	  1.27783	706.00299	 24.30	
 12.009	161.059	  1.20386	  0.21120	  1.05025	  0.74512	  0.46756	 -0.02550	  1.27001	705.92200	 24.20	
 12.013	142.081	  1.20578	  0.27772	  0.97226	  0.88625	  0.34876	 -0.02188	  1.26772	706.03101	 24.30	
 12.006	123.113	  1.20442	  0.37838	  0.85360	  0.99269	  0.26335	 -0.02459	  1.26544	705.97498	 24.20	
 12.007	104.200	  1.20357	  0.50721	  0.70975	  1.05618	  0.21220	 -0.02490	  1.26419	705.88800	 24.20	
 11.989	 85.301	  1.20436	  0.65417	  0.56161	  1.06754	  0.20452	 -0.03199	  1.26435	705.90002	 24.20	
 12.013	 66.294	  1.20604	  0.80327	  0.42406	  1.02903	  0.23555	 -0.03887	  1.26824	705.93103	 24.20	
 12.012	 47.388	  1.20239	  0.93156	  0.31056	  0.93628	  0.30678	 -0.04455	  1.26616	705.90002	 24.20	
 11.990	 28.440	  1.19368	  1.02108	  0.22981	  0.80471	  0.40915	 -0.04630	  1.26123	705.98401	 24.20	
 11.991	  9.464	  1.19301	  1.07012	  0.18891	  0.65857	  0.54020	 -0.04575	  1.26451	705.98700	 24.20	
 11.991	 -9.464	  1.19027	  1.06509	  0.18871	  0.50798	  0.68642	 -0.04292	  1.26515	705.86499	 24.20	
 11.990	-28.440	  1.18992	  1.01033	  0.23060	  0.37287	  0.83263	 -0.03654	  1.26909	705.91400	 24.20	
 12.012	-47.388	  1.18870	  0.90978	  0.31023	  0.26502	  0.95614	 -0.03644	  1.27039	705.98297	 24.20	
 12.013	-66.294	  1.18775	  0.77522	  0.42470	  0.19311	  1.04303	 -0.03514	  1.27081	705.94202	 24.20	
 11.989	-85.301	  1.18520	  0.62410	  0.56326	  0.16416	  1.07761	 -0.03497	  1.26928	705.81799	 24.20	
 12.007	-104.200	  1.18981	  0.47977	  0.71424	  0.17477	  1.06674	 -0.03879	  1.27284	705.97998	 24.20	
 12.006	-123.113	  1.18952	  0.35215	  0.85483	  0.22689	  1.00048	 -0.03592	  1.27057	706.04199	 24.20	
 12.013	-142.081	  1.19462	  0.25856	  0.97427	  0.32105	  0.89312	 -0.03064	  1.27240	705.88300	 24.20	
 12.009	-161.059	  1.19845	  0.20163	  1.05217	  0.44690	  0.75616	 -0.03042	  1.27299	706.04797	 24.20	
 16.000	180.000	  1.12456	  0.01553	  1.16562	  0.53665	  0.54646	 -0.04739	  1.27029	705.90698	 24.20	
 15.990	-165.604	  1.11991	  0.02688	  1.14443	  0.39105	  0.69254	 -0.04973	  1.26987	706.09302	 24.20	
 16.002	-151.165	  1.12164	  0.06800	  1.09033	  0.26262	  0.83960	 -0.05045	  1.27630	706.06201	 24.20	
 16.002	-136.836	  1.12457	  0.13519	  1.00167	  0.15269	  0.97432	 -0.05020	  1.28437	706.03400	 24.20	
 15.995	-122.439	  1.11938	  0.23178	  0.87628	  0.07044	  1.07494	 -0.05473	  1.28220	705.90802	 24.20	
 15.993	-107.966	  1.11402	  0.35488	  0.73197	  0.02013	  1.14120	 -0.05525	  1.27743	706.00000	 24.20	
 16.005	-93.629	  1.11096	  0.48949	  0.58278	 -0.00778	  1.17175	 -0.04922	  1.27692	706.04901	 24.20	
 15.992	-79.234	  1.10550	  0.63489	  0.43606	 -0.00106	  1.15778	 -0.04567	  1.27078	706.07397	 24.20	
 16.009	-64.774	  1.11113	  0.78709	  0.30787	  0.03990	  1.11395	 -0.04593	  1.27453	705.90503	 24.20	
 15.997	-50.364	  1.11293	  0.92319	  0.19615	  0.10538	  1.02939	 -0.04943	  1.27444	706.03400	 24.20	
 15.997	-36.045	  1.11487	  1.03634	  0.11108	  0.19929	  0.91516	 -0.04655	  1.27247	706.13501	 24.20	
 16.000	-21.597	  1.12863	  1.12807	  0.05677	  0.32237	  0.78838	 -0.05235	  1.28482	705.95502	 24.20	
 16.003	 -7.169	  1.12867	  1.16900	  0.02854	  0.46131	  0.63960	 -0.05622	  1.28025	705.94702	 24.20	
 16.003	  7.169	  1.13150	  1.17346	  0.02991	  0.61007	  0.49663	 -0.06327	  1.27916	705.94397	 24.20	
 16.000	 21.597	  1.14228	  1.14673	  0.05752	  0.76460	  0.36511	 -0.06093	  1.28761	705.97998	 24.20	
 15.997	 36.045	  1.13501	  1.06442	  0.11358	  0.89844	  0.24586	 -0.06648	  1.27676	706.00897	 24.20	
 15.997	 50.364	  1.14394	  0.96322	  0.20083	  1.02372	  0.15579	 -0.06971	  1.28260	705.95001	 24.20	
 16.009	 64.774	  1.13712	  0.82601	  0.30745	  1.10414	  0.08875	 -0.06030	  1.27221	706.14203	 24.20	
 15.992	 79.234	  1.14358	  0.68313	  0.43798	  1.16232	  0.04692	 -0.05622	  1.27812	706.02399	 24.20	
 16.005	 93.629	  1.13837	  0.53084	  0.57889	  1.16845	  0.03702	 -0.05010	  1.27157	705.95502	 24.20	
 15.993	107.966	  1.13894	  0.39062	  0.72832	  1.13993	  0.05775	 -0.04387	  1.27229	706.02899	 24.20	
 15.995	122.439	  1.14312	  0.26580	  0.87393	  1.07645	  0.10672	 -0.04445	  1.27683	706.02600	 24.20	
 16.002	136.836	  1.13761	  0.16212	  0.99552	  0.96958	  0.18321	 -0.04322	  1.27363	705.98999	 24.20	
 16.002	151.165	  1.13708	  0.08492	  1.09186	  0.84075	  0.28408	 -0.04159	  1.27557	705.93103	 24.20	
 15.990	165.604	  1.13208	  0.03516	  1.14934	  0.69047	  0.40832	 -0.04701	  1.27415	705.98999	 24.20	
 20.003	168.362	  1.03563	 -0.13347	  1.22161	  0.61733	  0.33759	 -0.04779	  1.27657	705.95502	 24.20	
 20.008	156.764	  1.04407	 -0.09598	  1.18047	  0.76980	  0.21496	 -0.04126	  1.28236	705.84302	 24.30	
 20.000	145.147	  1.03847	 -0.03580	  1.09339	  0.90325	  0.10556	 -0.03992	  1.27132	705.94397	 24.30	
 19.995	133.545	  1.04019	  0.04380	  0.98788	  1.02383	  0.01812	 -0.04413	  1.27140	706.01398	 24.20	
 20.009	121.926	  1.04119	  0.14158	  0.86142	  1.12343	 -0.05234	 -0.04271	  1.27207	705.99298	 24.20	
 20.005	110.327	  1.04280	  0.25956	  0.72199	  1.19178	 -0.09773	 -0.04189	  1.27207	705.98602	 24.20	
 19.989	 98.733	  1.04111	  0.39122	  0.57515	  1.22685	 -0.12299	 -0.04525	  1.26984	705.93103	 24.20	
 19.999	 87.075	  1.04783	  0.53675	  0.43270	  1.24074	 -0.12839	 -0.04948	  1.27844	705.92102	 24.20	
 19.992	 75.457	  1.04072	  0.67824	  0.29397	  1.20838	 -0.11116	 -0.05433	  1.27093	705.98602	 24.20	
 20.009	 63.844	  1.03926	  0.82099	  0.17077	  1.15323	 -0.07419	 -0.05470	  1.27250	705.85901	 24.20	
 19.989	 52.269	  1.03582	  0.95083	  0.06498	  1.06486	 -0.01477	 -0.06339	  1.27112	705.92700	 24.20	
 19.999	 40.602	  1.03537	  1.06580	 -0.02219	  0.95326	  0.06524	 -0.06598	  1.27582	705.96100	 24.20	
 20.004	 29.051	  1.03305	  1.15334	 -0.08598	  0.82045	  0.16622	 -0.05669	  1.27623	706.06897	 24.20	
 20.005	 17.433	  1.02934	  1.21146	 -0.13134	  0.67434	  0.28381	 -0.05130	  1.27658	706.00098	 24.20	
 20.006	  5.780	  1.02358	  1.23400	 -0.15311	  0.52359	  0.41443	 -0.04887	  1.27471	706.08197	 24.20	
 20.006	 -5.780	  1.02177	  1.23096	 -0.15252	  0.37940	  0.55640	 -0.04574	  1.27513	705.98700	 24.30	
 20.005	-17.433	  1.01601	  1.19235	 -0.13105	  0.23995	  0.70076	 -0.04424	  1.27156	706.06897	 24.30	
 20.004	-29.051	  1.01402	  1.12627	 -0.08718	  0.11905	  0.84159	 -0.04453	  1.27358	706.03802	 24.20	
 19.999	-40.602	  1.01446	  1.03402	 -0.02225	  0.01831	  0.97067	 -0.04082	  1.27676	706.02399	 24.30	
 19.989	-52.269	  1.01079	  0.91238	  0.06496	 -0.06542	  1.07815	 -0.04129	  1.27509	706.02899	 24.30	
 20.009	-63.844	  1.00813	  0.77643	  0.17056	 -0.12649	  1.15980	 -0.04147	  1.27566	705.91901	 24.30	
 19.992	-75.457	  1.00755	  0.63005	  0.29458	 -0.16454	  1.21213	 -0.03921	  1.27761	705.98700	 24.20	
 19.999	-87.075	  1.00401	  0.48139	  0.43104	 -0.17962	  1.22864	 -0.04119	  1.27169	705.91302	 24.30	
 19.989	-98.733	  1.00203	  0.33847	  0.57513	 -0.17297	  1.21803	 -0.04455	  1.26984	706.05603	 24.30	
 20.005	-110.327	  1.00831	  0.20968	  0.72390	 -0.14605	  1.18555	 -0.04876	  1.27699	706.13599	 24.20	
 20.009	-121.926	  1.00981	  0.09701	  0.86267	 -0.09490	  1.11439	 -0.05339	  1.27671	706.02301	 24.30	
 19.995	-133.545	  1.01600	  0.00477	  0.99175	 -0.02076	  1.01884	 -0.05567	  1.28015	705.91400	 24.30	
 20.000	-145.147	  1.01984	 -0.06574	  1.09620	  0.07638	  0.89761	 -0.05293	  1.28020	706.00598	 24.30	
 20.008	-156.764	  1.02131	 -0.11635	  1.17153	  0.19104	  0.75847	 -0.05050	  1.27609	705.96698	 24.30	
 20.003	-168.362	  1.02295	 -0.14331	  1.21508	  0.32213	  0.61465	 -0.04584	  1.27403	705.91602	 24.30	
 20.000	180.000	  1.03184	 -0.14940	  1.23681	  0.46814	  0.47433	 -0.04654	  1.27821	706.09399	 24.30	
