FileType=PCF
NHL=14
Date=03/08/19	12:00:26
Facility=APL
Serial=16071-5
Customer=NASA
NP=6
Mach=0.080000
Calibration=1:1
CalPts=490
TstPts=95
PortNumbering=AP Standard
Units=Torr C m/s kg/m^3 deg mm 
Theta[deg]	Phi[deg]	P1[Torr]	P2[Torr]	P3[Torr]	P4[Torr]	P5[Torr]	P6[Torr]	Pt[Torr]	Ps[Abs,Torr]	Ts[C]	
  0.000	  0.000	  3.12663	  1.36848	  1.36910	  1.41362	  1.31655	  0.07167	  3.11940	709.08002	 17.00	
  1.691	128.401	  3.12673	  1.27406	  1.43883	  1.51737	  1.19698	  0.06389	  3.12064	709.06000	 16.90	
  1.692	 77.194	  3.12575	  1.37777	  1.33774	  1.54230	  1.17289	  0.07185	  3.12050	709.14001	 16.90	
  1.699	 26.182	  3.12649	  1.48558	  1.23901	  1.46289	  1.24951	  0.07367	  3.11989	709.09003	 16.90	
  1.699	-26.182	  3.12844	  1.48491	  1.24230	  1.35186	  1.35903	  0.07075	  3.12241	709.13000	 16.80	
  1.692	-77.194	  3.12938	  1.38807	  1.34019	  1.27046	  1.44688	  0.06886	  3.12283	709.13000	 16.80	
  1.691	-128.401	  3.12794	  1.28232	  1.44271	  1.28424	  1.43280	  0.06363	  3.12189	709.15002	 16.80	
  1.700	180.000	  3.12787	  1.22278	  1.49809	  1.39450	  1.30678	  0.06210	  3.12245	709.20001	 16.80	
  3.400	180.000	  3.12101	  1.04732	  1.66709	  1.37587	  1.28962	  0.04690	  3.12187	709.10999	 16.70	
  3.388	-152.325	  3.12338	  1.08742	  1.62652	  1.23729	  1.43184	  0.04645	  3.12295	709.06000	 16.70	
  3.397	-124.529	  3.12443	  1.18103	  1.51891	  1.13562	  1.55302	  0.04747	  3.12280	709.07001	 16.70	
  3.399	-96.763	  3.12486	  1.30932	  1.38284	  1.09484	  1.60700	  0.05107	  3.12292	709.14001	 16.70	
  3.394	-69.283	  3.12535	  1.45876	  1.23965	  1.11732	  1.58369	  0.05399	  3.12212	709.14001	 16.70	
  3.400	-41.398	  3.12694	  1.58489	  1.12511	  1.19347	  1.49115	  0.05995	  3.12412	709.10999	 16.60	
  3.401	-14.021	  3.12487	  1.65821	  1.06119	  1.31097	  1.35628	  0.06681	  3.12094	709.25000	 16.60	
  3.401	 14.021	  3.12573	  1.65028	  1.06246	  1.45966	  1.21361	  0.06934	  3.12356	709.17999	 16.60	
  3.400	 41.398	  3.12443	  1.56964	  1.12081	  1.59743	  1.08797	  0.06813	  3.12360	709.26001	 16.60	
  3.394	 69.283	  3.12093	  1.43489	  1.23800	  1.68825	  1.00897	  0.06568	  3.11976	709.21002	 16.60	
  3.399	 96.763	  3.12199	  1.28594	  1.38465	  1.70603	  0.99666	  0.06176	  3.12189	709.17999	 16.60	
  3.397	124.529	  3.11995	  1.15811	  1.52228	  1.64919	  1.04153	  0.05497	  3.12095	709.16998	 16.60	
  3.388	152.325	  3.12244	  1.07309	  1.62850	  1.52297	  1.14973	  0.04951	  3.12382	709.15997	 16.60	
  5.099	161.165	  3.10489	  0.88097	  1.80234	  1.50833	  1.11343	  0.02913	  3.12327	709.12000	 16.60	
  5.109	142.013	  3.10435	  0.93912	  1.72121	  1.66116	  0.97759	  0.03315	  3.12319	709.09998	 16.60	
  5.095	123.033	  3.10533	  1.04443	  1.59462	  1.77940	  0.88184	  0.03981	  3.12402	709.13000	 16.60	
  5.105	104.191	  3.10404	  1.18052	  1.44057	  1.85199	  0.82318	  0.04345	  3.12265	709.09003	 16.60	
  5.093	 85.207	  3.10564	  1.33685	  1.28433	  1.86763	  0.81442	  0.05106	  3.12167	709.12000	 16.60	
  5.104	 66.290	  3.10776	  1.49593	  1.13421	  1.82952	  0.84584	  0.05387	  3.12267	709.21997	 16.50	
  5.094	 47.331	  3.10821	  1.63990	  1.00930	  1.73598	  0.92383	  0.05660	  3.12180	709.28998	 16.50	
  5.089	 28.397	  3.11307	  1.75185	  0.92415	  1.60299	  1.04101	  0.05866	  3.12539	709.19000	 16.50	
  5.096	  9.576	  3.11485	  1.81630	  0.87878	  1.44658	  1.18362	  0.05776	  3.12645	709.16998	 16.50	
  5.096	 -9.576	  3.11400	  1.81963	  0.88079	  1.28747	  1.33858	  0.05457	  3.12409	709.15002	 16.50	
  5.089	-28.397	  3.11663	  1.76839	  0.92479	  1.14580	  1.49356	  0.04777	  3.12651	709.19000	 16.50	
  5.094	-47.331	  3.11666	  1.66842	  1.01120	  1.03165	  1.63006	  0.04072	  3.12612	709.14001	 16.50	
  5.104	-66.290	  3.11636	  1.53090	  1.13415	  0.95374	  1.72655	  0.03631	  3.12579	709.23999	 16.50	
  5.093	-85.207	  3.11411	  1.37275	  1.27932	  0.91592	  1.76924	  0.03104	  3.12293	709.22998	 16.50	
  5.105	-104.191	  3.11349	  1.21709	  1.43627	  0.91993	  1.75766	  0.02883	  3.12379	709.21002	 16.50	
  5.095	-123.033	  3.11245	  1.07480	  1.59088	  0.97239	  1.68786	  0.02843	  3.12360	709.21997	 16.50	
  5.109	-142.013	  3.11020	  0.96619	  1.71751	  1.06897	  1.57060	  0.02578	  3.12356	709.15997	 16.50	
  5.099	-161.165	  3.11087	  0.89543	  1.80225	  1.20279	  1.42192	  0.02673	  3.12432	709.12000	 16.50	
  5.100	180.000	  3.10856	  0.86438	  1.83323	  1.35169	  1.26559	  0.02744	  3.12327	709.14001	 16.50	
  6.800	180.000	  3.07842	  0.67522	  1.98927	  1.31771	  1.23457	  0.00326	  3.12247	709.13000	 16.50	
  6.796	-166.229	  3.08132	  0.70054	  1.96650	  1.16880	  1.39097	  0.00172	  3.12248	709.10999	 16.50	
  6.808	-152.311	  3.08304	  0.75058	  1.90496	  1.02562	  1.54566	  0.00180	  3.12104	709.09998	 16.50	
  6.795	-138.383	  3.08613	  0.83471	  1.80494	  0.90692	  1.68687	  0.00353	  3.12260	709.13000	 16.50	
  6.792	-124.591	  3.08915	  0.94602	  1.67586	  0.81927	  1.79974	  0.00206	  3.12343	709.09003	 16.50	
  6.787	-110.754	  3.09006	  1.08001	  1.52705	  0.75912	  1.88038	  0.00286	  3.12281	709.13000	 16.50	
  6.800	-96.985	  3.08920	  1.22846	  1.37013	  0.72855	  1.92314	  0.00490	  3.12163	709.09003	 16.50	
  6.800	-83.015	  3.09237	  1.38909	  1.21118	  0.73245	  1.92343	  0.00654	  3.12412	709.15997	 16.50	
  6.787	-69.246	  3.09564	  1.54507	  1.06763	  0.77264	  1.87801	  0.00980	  3.12631	709.17999	 16.50	
  6.792	-55.409	  3.09512	  1.69034	  0.93974	  0.83890	  1.79471	  0.01522	  3.12551	709.03998	 16.50	
  6.795	-41.617	  3.09198	  1.81069	  0.83579	  0.92769	  1.68212	  0.01955	  3.12347	709.15002	 16.50	
  6.808	-27.689	  3.08958	  1.90567	  0.75402	  1.04487	  1.54265	  0.02674	  3.12200	709.15002	 16.50	
  6.796	-13.771	  3.09106	  1.96351	  0.70837	  1.18923	  1.38710	  0.03416	  3.12412	709.19000	 16.50	
  6.800	  0.000	  3.08642	  1.97790	  0.68968	  1.33784	  1.22914	  0.03759	  3.12052	709.21002	 16.50	
  6.796	 13.771	  3.08944	  1.95251	  0.70711	  1.49904	  1.07700	  0.03970	  3.12537	709.15002	 16.50	
  6.808	 27.689	  3.08427	  1.88516	  0.75323	  1.65593	  0.93482	  0.04312	  3.12258	709.10999	 16.50	
  6.795	 41.617	  3.08539	  1.78228	  0.83365	  1.79192	  0.82116	  0.04302	  3.12463	709.02002	 16.50	
  6.792	 55.409	  3.08201	  1.65062	  0.93984	  1.90150	  0.72896	  0.03693	  3.12230	709.13000	 16.50	
  6.787	 69.246	  3.08500	  1.50093	  1.07381	  1.98213	  0.66646	  0.03766	  3.12661	709.17999	 16.50	
  6.800	 83.015	  3.08211	  1.34174	  1.21960	  2.02181	  0.63051	  0.03249	  3.12544	708.94000	 16.50	
  6.800	 96.985	  3.07759	  1.18348	  1.37646	  2.01606	  0.63216	  0.02559	  3.12284	709.09998	 16.50	
  6.787	110.754	  3.07887	  1.03743	  1.53648	  1.97266	  0.66542	  0.02086	  3.12549	709.08002	 16.50	
  6.792	124.591	  3.07698	  0.90970	  1.68105	  1.88848	  0.72910	  0.01746	  3.12487	708.96002	 16.50	
  6.795	138.383	  3.07632	  0.80606	  1.80945	  1.77469	  0.81986	  0.01141	  3.12495	709.13000	 16.50	
  6.808	152.311	  3.07604	  0.73249	  1.90617	  1.63277	  0.94119	  0.00639	  3.12291	709.09998	 16.50	
  6.796	166.229	  3.07936	  0.68766	  1.97030	  1.47720	  1.08312	  0.00567	  3.12452	709.07001	 16.50	
  8.491	168.704	  3.03767	  0.49700	  2.12079	  1.44125	  1.03992	 -0.02162	  3.12385	709.04999	 16.50	
  8.502	157.493	  3.03640	  0.53184	  2.07020	  1.60427	  0.89207	 -0.01965	  3.12453	709.04999	 16.50	
  8.494	146.194	  3.03544	  0.59494	  1.98448	  1.75766	  0.75898	 -0.01836	  3.12553	709.07001	 16.50	
  8.495	135.039	  3.03509	  0.68134	  1.87211	  1.89126	  0.65036	 -0.01192	  3.12488	709.14001	 16.50	
  8.487	123.723	  3.03407	  0.78948	  1.73540	  2.00805	  0.55781	 -0.00792	  3.12385	709.14001	 16.50	
  8.492	112.575	  3.03374	  0.91436	  1.58462	  2.09461	  0.49046	 -0.00907	  3.12315	709.15002	 16.50	
  8.510	101.220	  3.03428	  1.05945	  1.42131	  2.15289	  0.44733	 -0.00612	  3.12169	709.04999	 16.50	
  8.500	 90.000	  3.03810	  1.21927	  1.25870	  2.17455	  0.43662	  0.00184	  3.12410	709.07001	 16.50	
  8.510	 78.780	  3.04349	  1.38260	  1.10235	  2.16348	  0.44802	  0.00769	  3.12703	709.09003	 16.50	
  8.492	 67.425	  3.04215	  1.54580	  0.95104	  2.10911	  0.48904	  0.01068	  3.12258	709.10999	 16.50	
  8.487	 56.277	  3.04582	  1.69968	  0.82360	  2.02726	  0.55667	  0.01295	  3.12391	709.13000	 16.50	
  8.495	 44.961	  3.04569	  1.83930	  0.70970	  1.91461	  0.64564	  0.01689	  3.12373	709.13000	 16.50	
  8.494	 33.806	  3.04464	  1.95355	  0.62029	  1.78319	  0.75099	  0.02004	  3.12069	709.14001	 16.50	
  8.502	 22.507	  3.04884	  2.04820	  0.55182	  1.63411	  0.87972	  0.02000	  3.12436	709.03998	 16.50	
  8.491	 11.296	  3.04648	  2.10111	  0.51565	  1.46950	  1.02775	  0.01665	  3.11899	709.09998	 16.60	
  8.500	  0.000	  3.05376	  2.12832	  0.50395	  1.30867	  1.18894	  0.01382	  3.12406	709.19000	 16.50	
  8.491	-11.296	  3.05217	  2.11217	  0.51893	  1.14888	  1.35074	  0.01027	  3.12050	709.03003	 16.50	
  8.502	-22.507	  3.05307	  2.06752	  0.55613	  0.99817	  1.51415	  0.00270	  3.12098	709.08002	 16.60	
  8.494	-33.806	  3.05552	  1.98718	  0.62139	  0.86735	  1.66767	 -0.00531	  3.12222	709.08002	 16.60	
  8.495	-44.961	  3.05596	  1.87952	  0.70917	  0.75620	  1.80230	 -0.00931	  3.12185	709.09998	 16.60	
  8.487	-56.277	  3.05487	  1.74702	  0.81951	  0.66462	  1.91730	 -0.01299	  3.12121	709.10999	 16.60	
  8.492	-67.425	  3.05338	  1.59999	  0.94513	  0.59677	  2.00219	 -0.02025	  3.11981	709.12000	 16.60	
  8.510	-78.780	  3.05602	  1.43879	  1.09180	  0.54984	  2.06221	 -0.02215	  3.12330	709.03998	 16.60	
  8.500	-90.000	  3.05407	  1.27787	  1.24950	  0.53599	  2.07938	 -0.02398	  3.12232	709.07001	 16.60	
  8.510	-101.220	  3.05240	  1.11803	  1.41359	  0.54517	  2.06314	 -0.02549	  3.12145	709.09998	 16.60	
  8.492	-112.575	  3.05238	  0.96602	  1.57777	  0.58259	  2.00929	 -0.02791	  3.12192	709.03003	 16.60	
  8.487	-123.723	  3.05147	  0.83429	  1.72939	  0.64656	  1.92506	 -0.02865	  3.12324	709.03003	 16.60	
  8.495	-135.039	  3.04940	  0.71904	  1.86586	  0.73556	  1.80989	 -0.02348	  3.12288	709.08002	 16.60	
  8.494	-146.194	  3.04541	  0.62112	  1.97858	  0.84168	  1.67446	 -0.02260	  3.12017	709.06000	 16.60	
  8.502	-157.493	  3.04698	  0.55191	  2.06754	  0.97577	  1.52213	 -0.02610	  3.12465	709.14001	 16.60	
  8.491	-168.704	  3.04201	  0.50946	  2.11806	  1.12196	  1.35920	 -0.02693	  3.12160	709.15002	 16.60	
  8.500	180.000	  3.03899	  0.49034	  2.13640	  1.27709	  1.19829	 -0.02347	  3.12264	709.06000	 16.60	
 10.200	180.000	  2.98883	  0.30645	  2.27584	  1.23050	  1.15675	 -0.05276	  3.12246	709.09003	 16.60	
 10.191	-170.497	  2.99271	  0.32221	  2.26153	  1.07281	  1.32079	 -0.05453	  3.12292	709.04999	 16.60	
 10.210	-161.034	  2.99067	  0.35452	  2.21557	  0.91823	  1.48474	 -0.05453	  3.11997	709.07001	 16.60	
 10.194	-151.526	  2.99323	  0.41426	  2.13864	  0.78231	  1.64351	 -0.05156	  3.12035	708.95001	 16.60	
 10.190	-142.105	  2.99684	  0.49673	  2.03874	  0.66455	  1.78903	 -0.05061	  3.12052	709.08002	 16.60	
 10.215	-132.646	  2.99883	  0.59573	  1.91480	  0.55703	  1.92653	 -0.05284	  3.12114	709.10999	 16.60	
 10.203	-123.092	  2.99954	  0.71440	  1.77290	  0.47087	  2.04129	 -0.05604	  3.12069	709.03998	 16.60	
 10.192	-113.678	  3.00120	  0.84762	  1.61781	  0.40796	  2.12868	 -0.05561	  3.12212	709.03003	 16.60	
 10.208	-104.249	  3.00387	  0.99588	  1.45570	  0.36712	  2.18589	 -0.05319	  3.12248	709.02002	 16.60	
 10.210	-94.801	  3.00377	  1.15337	  1.28948	  0.34884	  2.21688	 -0.04917	  3.12115	709.04999	 16.60	
 10.210	-85.199	  3.00870	  1.32326	  1.12325	  0.35373	  2.21815	 -0.05125	  3.12428	709.02002	 16.60	
 10.208	-75.751	  3.00828	  1.48534	  0.96899	  0.37646	  2.18707	 -0.05181	  3.12254	708.98999	 16.60	
 10.192	-66.322	  3.01034	  1.64748	  0.82667	  0.42451	  2.12431	 -0.04777	  3.12322	709.01001	 16.60	
 10.203	-56.908	  3.00909	  1.79793	  0.69653	  0.48972	  2.03558	 -0.04254	  3.12199	709.03998	 16.60	
 10.215	-47.354	  3.00964	  1.93665	  0.58465	  0.58067	  1.91932	 -0.04029	  3.12165	709.07001	 16.60	
 10.190	-37.895	  3.00882	  2.05380	  0.49067	  0.68811	  1.78340	 -0.03688	  3.11986	709.07001	 16.60	
 10.194	-28.474	  3.00811	  2.14808	  0.41650	  0.80864	  1.63684	 -0.03222	  3.12044	709.04999	 16.60	
 10.210	-18.966	  3.00658	  2.21799	  0.36092	  0.94979	  1.47542	 -0.02517	  3.12047	709.08002	 16.60	
 10.191	 -9.503	  3.00616	  2.25539	  0.33063	  1.10322	  1.30956	 -0.01856	  3.12077	709.14001	 16.60	
 10.200	  0.000	  3.00487	  2.26687	  0.31720	  1.26551	  1.14478	 -0.01426	  3.12229	709.09003	 16.60	
 10.191	  9.503	  3.00103	  2.24317	  0.32974	  1.43096	  0.98362	 -0.01053	  3.12005	709.06000	 16.60	
 10.210	 18.966	  2.99966	  2.19693	  0.35986	  1.59808	  0.83012	 -0.00650	  3.12289	709.03003	 16.60	
 10.194	 28.474	  2.99635	  2.11425	  0.41391	  1.75386	  0.69294	 -0.00362	  3.12106	709.03003	 16.60	
 10.190	 37.895	  2.99364	  2.00682	  0.49297	  1.89880	  0.57564	 -0.00515	  3.11854	708.96002	 16.60	
 10.215	 47.354	  2.99434	  1.88245	  0.58766	  2.03359	  0.46842	 -0.01242	  3.12323	709.03998	 16.60	
 10.203	 56.908	  2.99154	  1.73446	  0.70521	  2.14337	  0.38257	 -0.01469	  3.12130	709.09003	 16.60	
 10.192	 66.322	  2.98873	  1.57733	  0.83448	  2.22273	  0.31836	 -0.01784	  3.12057	709.03003	 16.60	
 10.208	 75.751	  2.98674	  1.41487	  0.97941	  2.27979	  0.27747	 -0.01918	  3.11961	709.04999	 16.60	
 10.210	 85.199	  2.98526	  1.24808	  1.13631	  2.30692	  0.25321	 -0.02323	  3.12036	709.07001	 16.60	
 10.210	 94.801	  2.98286	  1.08422	  1.30184	  2.30269	  0.25484	 -0.03083	  3.12007	709.10999	 16.60	
 10.208	104.249	  2.97998	  0.92755	  1.46631	  2.27203	  0.27241	 -0.03869	  3.12068	709.07001	 16.60	
 10.192	113.678	  2.97942	  0.78576	  1.62946	  2.20745	  0.31942	 -0.04080	  3.12089	708.98999	 16.60	
 10.203	123.092	  2.97925	  0.65993	  1.78206	  2.11814	  0.38569	 -0.03874	  3.12315	709.15997	 16.60	
 10.215	132.646	  2.97694	  0.54668	  1.92375	  2.00214	  0.47043	 -0.04236	  3.12145	709.14001	 16.60	
 10.190	142.105	  2.97841	  0.45677	  2.04578	  1.86561	  0.57928	 -0.04674	  3.12179	709.13000	 16.60	
 10.194	151.526	  2.98021	  0.38531	  2.14496	  1.71920	  0.70066	 -0.05055	  3.12316	709.00000	 16.60	
 10.210	161.034	  2.98137	  0.33674	  2.21734	  1.56062	  0.84002	 -0.05127	  3.12112	709.13000	 16.60	
 10.191	170.497	  2.98670	  0.31045	  2.26223	  1.39578	  0.99473	 -0.04998	  3.12453	709.03998	 16.60	
 11.899	171.783	  2.92276	  0.12757	  2.39339	  1.33929	  0.94420	 -0.07809	  3.12341	709.02002	 16.60	
 11.890	163.610	  2.92015	  0.15015	  2.35368	  1.50649	  0.78984	 -0.07917	  3.12237	708.98999	 16.60	
 11.889	155.445	  2.91751	  0.19206	  2.28839	  1.66972	  0.64732	 -0.08155	  3.12041	709.13000	 16.60	
 11.909	147.299	  2.91595	  0.24780	  2.20526	  1.82493	  0.51820	 -0.08004	  3.12288	709.03998	 16.60	
 11.902	139.148	  2.91280	  0.32469	  2.09395	  1.97092	  0.39880	 -0.07724	  3.11983	709.00000	 16.60	
 11.894	130.867	  2.91589	  0.42171	  1.96572	  2.10477	  0.30299	 -0.07319	  3.12278	709.04999	 16.60	
 11.897	122.732	  2.91730	  0.53436	  1.82167	  2.21692	  0.22283	 -0.06900	  3.12257	709.01001	 16.60	
 11.903	114.597	  2.91937	  0.66061	  1.66691	  2.30857	  0.15902	 -0.06933	  3.12363	709.04999	 16.60	
 11.893	106.346	  2.92046	  0.80130	  1.50261	  2.37606	  0.11254	 -0.07053	  3.12338	709.15002	 16.60	
 11.892	 98.155	  2.92523	  0.95456	  1.33580	  2.42045	  0.08496	 -0.06529	  3.12521	709.15002	 16.70	
 11.900	 90.000	  2.92527	  1.11171	  1.16972	  2.43918	  0.07069	 -0.06052	  3.12457	709.15002	 16.60	
 11.892	 81.845	  2.92663	  1.27714	  1.00706	  2.42841	  0.08055	 -0.05259	  3.12207	709.07001	 16.70	
 11.893	 73.654	  2.92621	  1.44471	  0.84898	  2.39260	  0.10309	 -0.05100	  3.12182	709.20001	 16.70	
 11.903	 65.403	  2.92951	  1.61307	  0.70351	  2.33442	  0.14546	 -0.05004	  3.12388	709.17999	 16.70	
 11.897	 57.268	  2.93140	  1.76995	  0.57835	  2.24660	  0.21393	 -0.04699	  3.12329	709.15002	 16.60	
 11.894	 49.133	  2.93099	  1.91521	  0.46401	  2.13897	  0.29387	 -0.04168	  3.12112	709.15997	 16.60	
 11.902	 40.852	  2.93141	  2.05076	  0.36154	  2.01063	  0.39067	 -0.03591	  3.12071	709.19000	 16.60	
 11.909	 32.701	  2.93403	  2.16632	  0.27933	  1.86694	  0.50435	 -0.03255	  3.12039	709.19000	 16.70	
 11.889	 24.555	  2.94110	  2.26178	  0.21806	  1.71486	  0.63474	 -0.03257	  3.12387	709.16998	 16.70	
 11.890	 16.390	  2.94367	  2.33274	  0.17331	  1.55438	  0.77463	 -0.03548	  3.12419	709.09003	 16.70	
 11.899	  8.217	  2.94204	  2.37730	  0.14434	  1.38466	  0.92878	 -0.03828	  3.12082	709.09998	 16.70	
 11.900	  0.000	  2.94553	  2.39751	  0.13507	  1.21735	  1.09057	 -0.04216	  3.12240	709.15002	 16.70	
 11.899	 -8.217	  2.94921	  2.39070	  0.14488	  1.05923	  1.25452	 -0.04496	  3.12387	709.22998	 16.70	
 11.890	-16.390	  2.95026	  2.35588	  0.17176	  0.90084	  1.42507	 -0.04990	  3.12264	709.28998	 16.70	
 11.889	-24.555	  2.95166	  2.29712	  0.21762	  0.75722	  1.58921	 -0.05591	  3.12178	709.08002	 16.70	
 11.909	-32.701	  2.95177	  2.21599	  0.27689	  0.62700	  1.74382	 -0.06207	  3.12182	709.07001	 16.70	
 11.902	-40.852	  2.95311	  2.11227	  0.35876	  0.50809	  1.89471	 -0.06666	  3.12423	709.08002	 16.70	
 11.894	-49.133	  2.95253	  1.98228	  0.45885	  0.40722	  2.02588	 -0.06601	  3.12340	709.07001	 16.70	
 11.897	-57.268	  2.95155	  1.84078	  0.57318	  0.32382	  2.13655	 -0.06816	  3.12071	709.07001	 16.70	
 11.903	-65.403	  2.95272	  1.69179	  0.69890	  0.25839	  2.22979	 -0.07100	  3.12410	709.09998	 16.70	
 11.893	-73.654	  2.94929	  1.52800	  0.84045	  0.21157	  2.29414	 -0.07272	  3.12075	709.03003	 16.70	
 11.892	-81.845	  2.94952	  1.35986	  0.99557	  0.17935	  2.33863	 -0.07316	  3.12315	709.10999	 16.70	
 11.900	-90.000	  2.94936	  1.19642	  1.15345	  0.16625	  2.35498	 -0.07237	  3.12448	709.08002	 16.70	
 11.892	-98.155	  2.94615	  1.03496	  1.31899	  0.17524	  2.33889	 -0.07159	  3.12279	709.08002	 16.70	
 11.893	-106.346	  2.94678	  0.87647	  1.49038	  0.20029	  2.30091	 -0.07345	  3.12441	709.08002	 16.70	
 11.903	-114.597	  2.94344	  0.72919	  1.65329	  0.24206	  2.23467	 -0.07562	  3.12201	708.96002	 16.70	
 11.897	-122.732	  2.94468	  0.59966	  1.81142	  0.30618	  2.14964	 -0.07451	  3.12574	709.15997	 16.70	
 11.894	-130.867	  2.94216	  0.47864	  1.95581	  0.38381	  2.03689	 -0.07430	  3.12457	709.17999	 16.70	
 11.902	-139.148	  2.93935	  0.37363	  2.08696	  0.48372	  1.90124	 -0.07181	  3.12266	709.20001	 16.70	
 11.909	-147.299	  2.93782	  0.28745	  2.19796	  0.59616	  1.75711	 -0.07203	  3.12329	709.17999	 16.70	
 11.889	-155.445	  2.93712	  0.21856	  2.28813	  0.72285	  1.60282	 -0.07466	  3.12449	709.09998	 16.70	
 11.890	-163.610	  2.93397	  0.17108	  2.35195	  0.86433	  1.43996	 -0.07946	  3.12434	709.07001	 16.70	
 11.899	-171.783	  2.92970	  0.13868	  2.39231	  1.01635	  1.27223	 -0.08113	  3.12435	709.08002	 16.70	
 11.900	180.000	  2.92752	  0.12476	  2.40679	  1.17499	  1.10757	 -0.07896	  3.12490	709.06000	 16.70	
 13.600	180.000	  2.85332	 -0.05626	  2.52927	  1.11109	  1.04956	 -0.10063	  3.12483	709.07001	 16.70	
 13.608	-172.853	  2.85447	 -0.04463	  2.51617	  0.95387	  1.21040	 -0.10217	  3.12360	709.09003	 16.70	
 13.611	-165.583	  2.85523	 -0.01732	  2.48059	  0.79893	  1.38078	 -0.10001	  3.12204	709.28003	 16.70	
 13.601	-158.353	  2.85894	  0.02852	  2.42079	  0.65564	  1.54870	 -0.09509	  3.12207	709.08002	 16.70	
 13.609	-151.210	  2.86269	  0.08601	  2.34110	  0.52671	  1.70897	 -0.09092	  3.12366	709.13000	 16.70	
 13.611	-143.999	  2.86496	  0.16102	  2.23909	  0.40599	  1.86402	 -0.08756	  3.12339	709.13000	 16.70	
 13.601	-136.825	  2.86705	  0.25038	  2.12080	  0.30062	  2.00777	 -0.08699	  3.12362	709.17999	 16.70	
 13.596	-129.640	  2.86760	  0.35457	  1.98479	  0.21233	  2.13140	 -0.08919	  3.12190	709.09003	 16.70	
 13.611	-122.431	  2.87169	  0.47332	  1.83938	  0.13588	  2.24503	 -0.08900	  3.12483	709.12000	 16.70	
 13.604	-115.211	  2.87392	  0.60774	  1.67867	  0.07452	  2.33778	 -0.08717	  3.12511	709.13000	 16.70	
 13.595	-108.042	  2.87307	  0.74827	  1.51635	  0.02943	  2.40656	 -0.08779	  3.12446	709.03998	 16.70	
 13.607	-100.793	  2.87328	  0.90009	  1.34543	 -0.00178	  2.45304	 -0.08667	  3.12309	709.16998	 16.70	
 13.601	-93.617	  2.87652	  1.06046	  1.17851	 -0.01263	  2.47654	 -0.08705	  3.12435	709.07001	 16.70	
 13.601	-86.383	  2.87614	  1.22542	  1.01309	 -0.01072	  2.47356	 -0.08511	  3.12163	709.21002	 16.70	
 13.607	-79.207	  2.87999	  1.39173	  0.85812	  0.00534	  2.45230	 -0.08784	  3.12468	709.15997	 16.70	
 13.595	-71.958	  2.88317	  1.55949	  0.70846	  0.04144	  2.40156	 -0.08672	  3.12574	709.10999	 16.70	
 13.604	-64.789	  2.88228	  1.71873	  0.57038	  0.08929	  2.32915	 -0.08884	  3.12323	709.12000	 16.70	
 13.611	-57.569	  2.88478	  1.87622	  0.44331	  0.15426	  2.23712	 -0.08830	  3.12573	708.98999	 16.70	
 13.596	-50.360	  2.88382	  2.01998	  0.33041	  0.23493	  2.12235	 -0.08777	  3.12224	709.17999	 16.70	
 13.601	-43.175	  2.88698	  2.15219	  0.23109	  0.32722	  1.99752	 -0.08699	  3.12606	709.14001	 16.70	
 13.611	-36.001	  2.88602	  2.26507	  0.14814	  0.43714	  1.85414	 -0.08856	  3.12534	709.03003	 16.70	
 13.609	-28.790	  2.88419	  2.35773	  0.07952	  0.56164	  1.69695	 -0.08382	  3.12306	709.17999	 16.70	
 13.601	-21.647	  2.88445	  2.43310	  0.02728	  0.69515	  1.53839	 -0.07896	  3.12393	709.03998	 16.70	
 13.611	-14.417	  2.88165	  2.48355	 -0.01200	  0.84252	  1.36948	 -0.07307	  3.12258	709.03003	 16.70	
 13.608	 -7.147	  2.87828	  2.51374	 -0.03571	  1.00068	  1.19781	 -0.07327	  3.12168	709.13000	 16.70	
 13.600	  0.000	  2.87849	  2.51893	 -0.04265	  1.16395	  1.03148	 -0.07272	  3.12396	708.96997	 16.70	
 13.608	  7.147	  2.87624	  2.50090	 -0.03442	  1.32755	  0.87302	 -0.07052	  3.12313	709.04999	 16.70	
 13.611	 14.417	  2.87174	  2.46038	 -0.01361	  1.49527	  0.71657	 -0.06769	  3.12188	709.07001	 16.70	
 13.601	 21.647	  2.87165	  2.39359	  0.02801	  1.66284	  0.57190	 -0.06625	  3.12413	709.06000	 16.70	
 13.609	 28.790	  2.86750	  2.30773	  0.08104	  1.82166	  0.43941	 -0.06415	  3.12206	709.03003	 16.70	
 13.611	 36.001	  2.86474	  2.20338	  0.15208	  1.97308	  0.32108	 -0.06460	  3.12211	709.04999	 16.70	
 13.601	 43.175	  2.86375	  2.08336	  0.23701	  2.11110	  0.21655	 -0.07037	  3.12334	709.03998	 16.70	
 13.596	 50.360	  2.86040	  1.94232	  0.33898	  2.23319	  0.12600	 -0.07564	  3.12262	709.08002	 16.70	
 13.611	 57.569	  2.86126	  1.79196	  0.45490	  2.34305	  0.04897	 -0.08093	  3.12483	709.12000	 16.70	
 13.604	 64.789	  2.85766	  1.62950	  0.58286	  2.42997	 -0.01394	 -0.08299	  3.12350	709.09003	 16.70	
 13.595	 71.958	  2.85701	  1.46622	  0.72059	  2.49488	 -0.05995	 -0.08353	  3.12373	709.03998	 16.70	
 13.607	 79.207	  2.85182	  1.29641	  0.87183	  2.53540	 -0.09098	 -0.08536	  3.12045	708.97998	 16.70	
 13.601	 86.383	  2.84872	  1.12738	  1.02926	  2.55375	 -0.10708	 -0.09196	  3.11991	709.03998	 16.70	
 13.601	 93.617	  2.84877	  0.96801	  1.19460	  2.55087	 -0.10371	 -0.09677	  3.12166	709.01001	 16.70	
 13.607	100.793	  2.84647	  0.81195	  1.36228	  2.52437	 -0.08715	 -0.10096	  3.12071	709.03003	 16.70	
 13.595	108.042	  2.84421	  0.66255	  1.53079	  2.47386	 -0.05548	 -0.10313	  3.12146	709.02002	 16.60	
 13.604	115.211	  2.84169	  0.52746	  1.69260	  2.40215	 -0.00956	 -0.10358	  3.12231	709.14001	 16.60	
 13.611	122.431	  2.84073	  0.40126	  1.85084	  2.30941	  0.05096	 -0.10319	  3.12239	709.14001	 16.60	
 13.596	129.640	  2.84477	  0.29411	  1.99974	  2.19592	  0.13471	 -0.10607	  3.12555	709.10999	 16.60	
 13.601	136.825	  2.84135	  0.19488	  2.13205	  2.06672	  0.22294	 -0.10882	  3.12415	709.09003	 16.70	
 13.611	143.999	  2.84123	  0.11487	  2.24666	  1.92516	  0.32818	 -0.11213	  3.12376	709.09998	 16.70	
 13.609	151.210	  2.84379	  0.04738	  2.34970	  1.76984	  0.45167	 -0.11438	  3.12397	709.10999	 16.70	
 13.601	158.353	  2.84677	 -0.00166	  2.42844	  1.61139	  0.58370	 -0.10797	  3.12653	709.12000	 16.70	
 13.611	165.583	  2.84798	 -0.03755	  2.48451	  1.44418	  0.72877	 -0.10659	  3.12545	709.07001	 16.70	
 13.608	172.853	  2.85301	 -0.05301	  2.51914	  1.27664	  0.88802	 -0.10324	  3.12698	709.07001	 16.70	
 15.298	173.587	  2.76813	 -0.22453	  2.62783	  1.20719	  0.82643	 -0.12714	  3.12552	708.98999	 16.70	
 15.291	167.167	  2.76447	 -0.20928	  2.59730	  1.37466	  0.66941	 -0.13260	  3.12476	709.12000	 16.70	
 15.307	160.676	  2.76133	 -0.18040	  2.54520	  1.54231	  0.52132	 -0.13653	  3.12399	708.98999	 16.60	
 15.300	154.261	  2.76025	 -0.13856	  2.47430	  1.70389	  0.38662	 -0.14082	  3.12370	709.00000	 16.70	
 15.288	147.854	  2.75908	 -0.08220	  2.38535	  1.86378	  0.26182	 -0.14463	  3.12457	709.14001	 16.60	
 15.293	141.428	  2.75885	 -0.01238	  2.27739	  2.01388	  0.15028	 -0.14310	  3.12336	709.08002	 16.60	
 15.299	134.985	  2.75674	  0.07213	  2.15220	  2.15109	  0.05203	 -0.14209	  3.12179	709.22998	 16.70	
 15.305	128.583	  2.75826	  0.16491	  2.01696	  2.27965	 -0.03699	 -0.14020	  3.12464	709.12000	 16.70	
 15.309	122.142	  2.75658	  0.27423	  1.86809	  2.39164	 -0.11107	 -0.13784	  3.12310	709.03998	 16.60	
 15.304	115.711	  2.75996	  0.39484	  1.71074	  2.48799	 -0.17222	 -0.13906	  3.12454	709.09998	 16.70	
 15.297	109.291	  2.76355	  0.52850	  1.55063	  2.56223	 -0.21416	 -0.13941	  3.12478	709.13000	 16.60	
 15.293	102.897	  2.76416	  0.67195	  1.38422	  2.61529	 -0.24648	 -0.14088	  3.12294	709.06000	 16.60	
 15.293	 96.458	  2.76710	  0.82364	  1.21569	  2.65167	 -0.26843	 -0.13548	  3.12413	709.21002	 16.60	
 15.300	 90.000	  2.76895	  0.98247	  1.05016	  2.66559	 -0.27669	 -0.12985	  3.12432	709.10999	 16.60	
 15.293	 83.542	  2.76998	  1.14399	  0.88977	  2.65717	 -0.26887	 -0.12398	  3.12298	709.03003	 16.60	
 15.293	 77.103	  2.77236	  1.31231	  0.73276	  2.63344	 -0.25407	 -0.12199	  3.12470	709.13000	 16.60	
 15.297	 70.709	  2.77161	  1.47853	  0.58257	  2.58534	 -0.22543	 -0.12250	  3.12336	709.17999	 16.60	
 15.304	 64.289	  2.77205	  1.64179	  0.44743	  2.51770	 -0.18197	 -0.12256	  3.12380	709.25000	 16.60	
 15.309	 57.858	  2.77468	  1.80532	  0.32162	  2.42988	 -0.12131	 -0.12097	  3.12331	709.03998	 16.60	
 15.305	 51.417	  2.77598	  1.95833	  0.20938	  2.32329	 -0.04745	 -0.11366	  3.12278	709.06000	 16.60	
 15.299	 45.015	  2.77943	  2.10140	  0.10778	  2.20073	  0.03914	 -0.10763	  3.12375	709.06000	 16.60	
 15.293	 38.572	  2.78112	  2.22860	  0.02056	  2.06652	  0.13576	 -0.09950	  3.12299	709.09003	 16.60	
 15.288	 32.146	  2.78401	  2.34402	 -0.05510	  1.92026	  0.24479	 -0.09537	  3.12539	709.09003	 16.70	
 15.300	 25.739	  2.78596	  2.44072	 -0.11361	  1.76125	  0.37142	 -0.09623	  3.12374	709.02002	 16.60	
 15.307	 19.324	  2.79005	  2.52121	 -0.16081	  1.59949	  0.50576	 -0.09827	  3.12600	709.13000	 16.60	
 15.291	 12.833	  2.79138	  2.57671	 -0.19242	  1.43302	  0.64987	 -0.09721	  3.12439	709.03998	 16.60	
 15.298	  6.413	  2.79366	  2.61398	 -0.21266	  1.26340	  0.80631	 -0.09772	  3.12302	709.03998	 16.70	
 15.300	  0.000	  2.79835	  2.63160	 -0.21803	  1.10023	  0.96682	 -0.09637	  3.12551	709.14001	 16.70	
 15.298	 -6.413	  2.80081	  2.62727	 -0.21089	  0.94110	  1.13034	 -0.09743	  3.12474	709.15002	 16.60	
 15.291	-12.833	  2.80143	  2.59897	 -0.18929	  0.78359	  1.29988	 -0.09836	  3.12315	709.16998	 16.60	
 15.307	-19.324	  2.80521	  2.55593	 -0.15813	  0.63456	  1.47099	 -0.10017	  3.12618	709.14001	 16.70	
 15.300	-25.739	  2.80491	  2.48828	 -0.11204	  0.49817	  1.63382	 -0.10109	  3.12315	709.17999	 16.60	
 15.288	-32.146	  2.80537	  2.40280	 -0.05246	  0.37113	  1.79370	 -0.10421	  3.12390	709.08002	 16.70	
 15.293	-38.572	  2.80734	  2.29827	  0.02120	  0.25714	  1.94617	 -0.10591	  3.12461	709.19000	 16.60	
 15.299	-45.015	  2.80589	  2.17839	  0.10589	  0.15551	  2.08240	 -0.10430	  3.12283	709.19000	 16.60	
 15.305	-51.417	  2.80374	  2.04487	  0.20242	  0.06340	  2.21185	 -0.10379	  3.12316	709.15002	 16.60	
 15.309	-57.858	  2.80448	  1.89933	  0.31253	 -0.01618	  2.32569	 -0.10240	  3.12630	709.17999	 16.60	
 15.304	-64.289	  2.80064	  1.73901	  0.43824	 -0.07787	  2.41876	 -0.10146	  3.12338	709.20001	 16.60	
 15.297	-70.709	  2.80022	  1.57846	  0.57362	 -0.12405	  2.49253	 -0.09981	  3.12255	709.16998	 16.60	
 15.293	-77.103	  2.80009	  1.41785	  0.71542	 -0.15700	  2.54785	 -0.09778	  3.12450	709.10999	 16.60	
 15.293	-83.542	  2.79766	  1.25028	  0.87000	 -0.18017	  2.58001	 -0.09561	  3.12395	709.13000	 16.60	
 15.300	-90.000	  2.79597	  1.08497	  1.03013	 -0.18826	  2.59240	 -0.09751	  3.12426	709.08002	 16.60	
 15.293	-96.458	  2.79428	  0.92283	  1.19607	 -0.18297	  2.58241	 -0.09301	  3.12359	709.14001	 16.60	
 15.293	-102.897	  2.79142	  0.76507	  1.36585	 -0.16412	  2.54819	 -0.09382	  3.12159	709.15997	 16.60	
 15.297	-109.291	  2.79358	  0.62021	  1.53290	 -0.13289	  2.50177	 -0.09224	  3.12581	709.12000	 16.60	
 15.304	-115.711	  2.79220	  0.48235	  1.69589	 -0.08940	  2.42969	 -0.09573	  3.12625	709.13000	 16.60	
 15.309	-122.142	  2.79088	  0.35327	  1.85604	 -0.03068	  2.33956	 -0.09914	  3.12702	709.21002	 16.60	
 15.305	-128.583	  2.78858	  0.23588	  2.00546	  0.04373	  2.22622	 -0.09713	  3.12468	709.23999	 16.60	
 15.299	-134.985	  2.78710	  0.13158	  2.14411	  0.12752	  2.09948	 -0.09773	  3.12527	709.16998	 16.60	
 15.293	-141.428	  2.78442	  0.04027	  2.26739	  0.22318	  1.96039	 -0.09608	  3.12377	709.15002	 16.60	
 15.288	-147.854	  2.78074	 -0.04032	  2.37714	  0.33320	  1.80923	 -0.10173	  3.12325	709.25000	 16.60	
 15.300	-154.261	  2.77969	 -0.10232	  2.46973	  0.45746	  1.65036	 -0.10670	  3.12424	709.14001	 16.60	
 15.307	-160.676	  2.77690	 -0.15658	  2.54408	  0.58772	  1.48755	 -0.11239	  3.12451	709.07001	 16.60	
 15.291	-167.167	  2.77689	 -0.19250	  2.59803	  0.73357	  1.31953	 -0.11772	  3.12666	709.15002	 16.60	
 15.298	-173.587	  2.77350	 -0.21725	  2.62992	  0.88484	  1.15124	 -0.11927	  3.12561	709.10999	 16.60	
 15.300	180.000	  2.76776	 -0.22852	  2.63828	  1.04186	  0.98411	 -0.11985	  3.12379	709.17999	 16.60	
 17.000	180.000	  2.67346	 -0.39490	  2.74005	  0.97241	  0.91417	 -0.13834	  3.12446	709.19000	 16.60	
 16.990	-174.179	  2.67689	 -0.38172	  2.72850	  0.81544	  1.08042	 -0.13082	  3.12400	709.21002	 16.60	
 17.009	-168.383	  2.67904	 -0.36025	  2.69986	  0.66194	  1.24930	 -0.12723	  3.12304	709.15002	 16.60	
 17.000	-162.596	  2.68461	 -0.32643	  2.65453	  0.52309	  1.41553	 -0.12333	  3.12589	709.20001	 16.60	
 16.990	-156.759	  2.68413	 -0.27921	  2.58418	  0.39038	  1.58009	 -0.11490	  3.12213	709.25000	 16.60	
 16.995	-150.919	  2.68832	 -0.22586	  2.50254	  0.26354	  1.74430	 -0.11334	  3.12533	709.17999	 16.60	
 16.988	-145.161	  2.69066	 -0.15487	  2.40148	  0.15598	  1.89941	 -0.10867	  3.12474	709.17999	 16.60	
 17.014	-139.343	  2.68867	 -0.07909	  2.28508	  0.05167	  2.04272	 -0.10466	  3.12187	709.22998	 16.60	
 17.007	-133.546	  2.69535	  0.01640	  2.15630	 -0.03820	  2.18385	 -0.10398	  3.12599	709.15997	 16.60	
 17.001	-127.699	  2.69423	  0.11920	  2.01370	 -0.11749	  2.30639	 -0.10020	  3.12295	709.32001	 16.60	
 17.006	-121.937	  2.69463	  0.23092	  1.86581	 -0.18603	  2.41478	 -0.10015	  3.12332	709.22998	 16.60	
 17.002	-116.134	  2.69971	  0.35857	  1.70959	 -0.23718	  2.50676	 -0.09862	  3.12538	709.17999	 16.60	
 17.001	-110.310	  2.70154	  0.49294	  1.54600	 -0.28317	  2.58282	 -0.09805	  3.12627	709.15002	 16.60	
 16.988	-104.517	  2.70349	  0.63512	  1.38026	 -0.31355	  2.63779	 -0.09756	  3.12605	709.22998	 16.60	
 17.008	-98.662	  2.70205	  0.78596	  1.21046	 -0.33882	  2.67589	 -0.09887	  3.12425	709.06000	 16.60	
 16.996	-92.909	  2.70406	  0.94304	  1.04609	 -0.34970	  2.69367	 -0.10027	  3.12609	709.12000	 16.60	
 16.996	-87.091	  2.70628	  1.10343	  0.88532	 -0.34842	  2.69230	 -0.09841	  3.12487	709.03003	 16.60	
 17.012	-81.253	  2.70750	  1.26991	  0.72563	 -0.33873	  2.67436	 -0.09870	  3.12566	709.16998	 16.60	
 16.988	-75.483	  2.71200	  1.43545	  0.58086	 -0.30970	  2.63128	 -0.10071	  3.12408	709.12000	 16.60	
 17.001	-69.690	  2.71107	  1.59659	  0.44153	 -0.27639	  2.57281	 -0.10348	  3.12334	709.15002	 16.60	
 17.002	-63.866	  2.71395	  1.75791	  0.30744	 -0.23206	  2.49911	 -0.10530	  3.12687	709.21002	 16.60	
 17.006	-58.063	  2.71149	  1.91325	  0.18361	 -0.17566	  2.40331	 -0.10778	  3.12383	709.21002	 16.60	
 17.001	-52.301	  2.71538	  2.06110	  0.07806	 -0.09928	  2.29287	 -0.11024	  3.12447	709.19000	 16.60	
 17.007	-46.454	  2.71804	  2.20173	 -0.02182	 -0.01441	  2.16367	 -0.11416	  3.12634	709.22998	 16.60	
 17.014	-40.657	  2.71775	  2.32556	 -0.10637	  0.07975	  2.02849	 -0.11534	  3.12585	709.29999	 16.60	
 16.988	-34.839	  2.71815	  2.43408	 -0.17676	  0.18851	  1.88196	 -0.11730	  3.12622	709.29999	 16.60	
 16.995	-29.081	  2.72086	  2.53194	 -0.24091	  0.30690	  1.72844	 -0.11695	  3.12917	709.21997	 16.60	
 16.990	-23.241	  2.71738	  2.60591	 -0.29020	  0.43354	  1.56504	 -0.11680	  3.12457	709.20001	 16.60	
 17.000	-17.404	  2.71703	  2.66669	 -0.32990	  0.57341	  1.39912	 -0.11854	  3.12586	709.25000	 16.60	
 17.009	-11.617	  2.71369	  2.70679	 -0.35906	  0.71829	  1.23264	 -0.11695	  3.12533	709.21997	 16.60	
 16.990	 -5.821	  2.71202	  2.72768	 -0.37378	  0.87568	  1.06446	 -0.11864	  3.12439	709.21002	 16.60	
 17.000	  0.000	  2.70804	  2.73053	 -0.38146	  1.03181	  0.90107	 -0.12196	  3.12450	709.15002	 16.60	
 16.990	  5.821	  2.70705	  2.71593	 -0.37425	  1.19597	  0.74374	 -0.12665	  3.12582	709.22998	 16.60	
 17.009	 11.617	  2.70166	  2.68134	 -0.36110	  1.36235	  0.58576	 -0.12794	  3.12380	709.23999	 16.60	
 17.000	 17.404	  2.70097	  2.63020	 -0.33289	  1.52756	  0.44363	 -0.12838	  3.12613	709.27002	 16.60	
 16.990	 23.241	  2.69852	  2.55874	 -0.29401	  1.69289	  0.30508	 -0.12822	  3.12606	709.25000	 16.60	
 16.995	 29.081	  2.69498	  2.46748	 -0.23873	  1.85467	  0.18197	 -0.13116	  3.12435	709.21997	 16.60	
 16.988	 34.839	  2.69268	  2.36371	 -0.17651	  2.00418	  0.06746	 -0.13351	  3.12452	709.22998	 16.60	
 17.014	 40.657	  2.69079	  2.24578	 -0.10283	  2.15023	 -0.03616	 -0.13813	  3.12705	709.15997	 16.60	
 17.007	 46.454	  2.68882	  2.11063	 -0.01073	  2.28162	 -0.12417	 -0.14644	  3.12411	709.21997	 16.60	
 17.001	 52.301	  2.68750	  1.96561	  0.08848	  2.40239	 -0.20514	 -0.15337	  3.12619	709.21997	 16.60	
 17.006	 58.063	  2.68528	  1.81286	  0.19983	  2.50823	 -0.27535	 -0.15783	  3.12760	709.28998	 16.60	
 17.002	 63.866	  2.68454	  1.65095	  0.32648	  2.59343	 -0.32715	 -0.15898	  3.12514	709.28003	 16.60	
 17.001	 69.690	  2.68232	  1.48572	  0.45882	  2.66370	 -0.37176	 -0.15991	  3.12522	709.23999	 16.60	
 16.988	 75.483	  2.68152	  1.32102	  0.59785	  2.71592	 -0.40525	 -0.16088	  3.12608	709.16998	 16.60	
 17.012	 81.253	  2.67939	  1.15440	  0.74764	  2.75102	 -0.42739	 -0.16316	  3.12718	709.17999	 16.60	
 16.996	 87.091	  2.67741	  0.99132	  0.90507	  2.76308	 -0.43458	 -0.16630	  3.12557	709.22998	 16.60	
 16.996	 92.909	  2.67839	  0.83465	  1.07019	  2.76191	 -0.43066	 -0.17233	  3.12796	709.16998	 16.60	
 17.008	 98.662	  2.67424	  0.67937	  1.23091	  2.73846	 -0.42271	 -0.17636	  3.12602	709.17999	 16.60	
 16.988	104.517	  2.67278	  0.53397	  1.39971	  2.69497	 -0.39525	 -0.17762	  3.12411	709.28998	 16.60	
 17.001	110.310	  2.66902	  0.39643	  1.56220	  2.63673	 -0.36422	 -0.17869	  3.12581	709.21002	 16.60	
 17.002	116.134	  2.66888	  0.26942	  1.72499	  2.56021	 -0.31743	 -0.17549	  3.12626	709.16998	 16.60	
 17.006	121.937	  2.66548	  0.15015	  1.88080	  2.46557	 -0.26274	 -0.17663	  3.12550	709.19000	 16.60	
 17.001	127.699	  2.66625	  0.04716	  2.03070	  2.35578	 -0.19191	 -0.17459	  3.12611	709.21002	 16.60	
 17.007	133.546	  2.66587	 -0.05199	  2.17225	  2.23033	 -0.11405	 -0.17391	  3.12791	709.29999	 16.60	
 17.014	139.343	  2.66439	 -0.13415	  2.29988	  2.09238	 -0.02068	 -0.17439	  3.12566	709.22998	 16.60	
 16.988	145.161	  2.66547	 -0.20466	  2.41305	  1.94565	  0.08396	 -0.17415	  3.12589	709.22998	 16.60	
 16.995	150.919	  2.66624	 -0.26616	  2.51136	  1.79179	  0.19654	 -0.16738	  3.12731	709.15002	 16.60	
 16.990	156.759	  2.66663	 -0.31329	  2.59167	  1.62781	  0.32615	 -0.16411	  3.12533	709.10999	 16.60	
 17.000	162.596	  2.66864	 -0.35124	  2.65655	  1.46388	  0.45973	 -0.15623	  3.12529	709.16998	 16.60	
 17.009	168.383	  2.67088	 -0.37886	  2.70393	  1.29851	  0.60257	 -0.14794	  3.12667	709.23999	 16.60	
 16.990	174.179	  2.67493	 -0.38825	  2.73062	  1.13344	  0.76026	 -0.14370	  3.12681	709.21002	 16.60	
 18.709	174.675	  2.56672	 -0.55479	  2.82008	  1.05006	  0.68697	 -0.15636	  3.12388	709.12000	 16.60	
 18.703	169.441	  2.56651	 -0.54425	  2.79781	  1.21439	  0.53518	 -0.16476	  3.12631	709.17999	 16.60	
 18.691	164.085	  2.56672	 -0.52305	  2.75852	  1.37941	  0.39093	 -0.17283	  3.12951	709.09998	 16.60	
 18.706	158.818	  2.56214	 -0.49121	  2.69647	  1.54449	  0.25355	 -0.18110	  3.12518	709.16998	 16.60	
 18.695	153.537	  2.55990	 -0.44724	  2.61947	  1.70582	  0.12766	 -0.18739	  3.12482	709.15002	 16.60	
 18.704	148.255	  2.56148	 -0.39659	  2.53210	  1.86280	  0.01463	 -0.19361	  3.12659	709.22998	 16.60	
 18.698	142.952	  2.56047	 -0.33413	  2.42643	  2.01588	 -0.09082	 -0.19768	  3.12656	709.23999	 16.60	
 18.699	137.625	  2.55526	 -0.26159	  2.30392	  2.15771	 -0.18867	 -0.20178	  3.12378	709.97998	 16.60	
 18.705	132.343	  2.55782	 -0.18161	  2.17650	  2.29248	 -0.27653	 -0.20523	  3.12521	709.95001	 16.60	
 18.713	127.067	  2.55585	 -0.08976	  2.03466	  2.41424	 -0.35415	 -0.20628	  3.12447	709.32001	 16.60	
 18.700	121.794	  2.55755	  0.01610	  1.88538	  2.52174	 -0.41571	 -0.20867	  3.12232	709.52002	 16.60	
 18.698	116.504	  2.55987	  0.12776	  1.73104	  2.61924	 -0.47204	 -0.21100	  3.12661	709.84998	 16.60	
 18.707	111.165	  2.55888	  0.25115	  1.56705	  2.69844	 -0.51725	 -0.21691	  3.12358	709.26001	 16.60	
 18.690	105.863	  2.56757	  0.38925	  1.40509	  2.76258	 -0.54584	 -0.21271	  3.12736	709.90997	 16.60	
 18.696	100.583	  2.56681	  0.52482	  1.24130	  2.80993	 -0.57576	 -0.21678	  3.12501	709.90997	 16.60	
 18.700	 95.309	  2.56747	  0.67150	  1.07485	  2.83864	 -0.59228	 -0.21144	  3.12510	709.12000	 16.60	
 18.700	 90.000	  2.57205	  0.82967	  0.91296	  2.85388	 -0.59783	 -0.21093	  3.12717	709.19000	 16.60	
 18.700	 84.691	  2.57237	  0.98737	  0.75463	  2.84517	 -0.59313	 -0.20432	  3.12325	709.15997	 16.60	
 18.696	 79.417	  2.57079	  1.14827	  0.60284	  2.82260	 -0.57950	 -0.20236	  3.12157	709.39001	 16.60	
 18.690	 74.137	  2.57596	  1.31444	  0.46199	  2.78777	 -0.55604	 -0.20274	  3.12521	709.19000	 16.60	
 18.707	 68.835	  2.58051	  1.48273	  0.32114	  2.73515	 -0.52427	 -0.20042	  3.12832	709.94000	 16.60	
 18.698	 63.496	  2.58223	  1.64949	  0.19343	  2.65931	 -0.47658	 -0.19653	  3.12709	709.19000	 16.60	
 18.700	 58.206	  2.58100	  1.80880	  0.07542	  2.56985	 -0.42282	 -0.19557	  3.12461	709.97998	 16.60	
 18.713	 52.933	  2.58229	  1.95999	 -0.03536	  2.46962	 -0.36335	 -0.18986	  3.12616	709.21002	 16.60	
 18.705	 47.657	  2.58260	  2.10534	 -0.13238	  2.35260	 -0.29022	 -0.18487	  3.12405	709.67999	 16.60	
 18.699	 42.375	  2.58582	  2.24258	 -0.22195	  2.22248	 -0.20268	 -0.17851	  3.12461	709.84003	 16.60	
 18.698	 37.048	  2.58987	  2.36892	 -0.29794	  2.08124	 -0.10660	 -0.17166	  3.12575	709.38000	 16.60	
 18.704	 31.745	  2.59330	  2.48235	 -0.36547	  1.93324	 -0.00008	 -0.16550	  3.12634	709.28998	 16.60	
 18.695	 26.463	  2.59733	  2.58010	 -0.41726	  1.78049	  0.11688	 -0.16294	  3.12799	709.31000	 16.60	
 18.706	 21.182	  2.59977	  2.66171	 -0.46220	  1.61816	  0.24413	 -0.15970	  3.12704	709.26001	 16.60	
 18.691	 15.915	  2.60447	  2.73020	 -0.49678	  1.45412	  0.37983	 -0.15355	  3.12886	709.28003	 16.60	
 18.703	 10.559	  2.60296	  2.77632	 -0.52524	  1.28591	  0.51916	 -0.15317	  3.12647	709.21997	 16.60	
 18.709	  5.325	  2.60555	  2.80596	 -0.53650	  1.12425	  0.66820	 -0.14906	  3.12461	709.32001	 16.60	
 18.700	  0.000	  2.60664	  2.82138	 -0.54374	  0.96034	  0.82518	 -0.14504	  3.12633	709.27002	 16.60	
 18.709	 -5.325	  2.61068	  2.81993	 -0.54086	  0.80033	  0.98910	 -0.14140	  3.12772	709.22998	 16.60	
 18.703	-10.559	  2.61366	  2.80006	 -0.52362	  0.65150	  1.15380	 -0.13698	  3.12713	709.26001	 16.60	
 18.691	-15.915	  2.61633	  2.76230	 -0.49687	  0.50686	  1.31742	 -0.13345	  3.12619	709.28998	 16.60	
 18.706	-21.182	  2.61816	  2.71069	 -0.46377	  0.36742	  1.48682	 -0.13314	  3.12730	709.23999	 16.60	
 18.695	-26.463	  2.61970	  2.64140	 -0.42035	  0.23656	  1.65134	 -0.12671	  3.12862	709.21997	 16.60	
 18.704	-31.745	  2.61961	  2.55609	 -0.36924	  0.11741	  1.80803	 -0.12655	  3.12962	709.17999	 16.60	
 18.698	-37.048	  2.61783	  2.45123	 -0.30193	  0.01118	  1.95872	 -0.12349	  3.12648	709.15997	 16.60	
 18.699	-42.375	  2.61554	  2.33285	 -0.22716	 -0.09258	  2.10387	 -0.12193	  3.12459	709.25000	 16.60	
 18.705	-47.657	  2.61656	  2.20706	 -0.14239	 -0.18175	  2.24161	 -0.11681	  3.12572	709.25000	 16.60	
 18.713	-52.933	  2.61304	  2.06852	 -0.04739	 -0.26021	  2.36113	 -0.11473	  3.12460	709.19000	 16.60	
 18.700	-58.206	  2.61422	  1.92239	  0.05768	 -0.32605	  2.47089	 -0.11550	  3.12623	709.14001	 16.60	
 18.698	-63.496	  2.61575	  1.77011	  0.17820	 -0.38097	  2.56846	 -0.11109	  3.12839	709.09003	 16.60	
 18.707	-68.835	  2.60998	  1.60475	  0.30261	 -0.43016	  2.64692	 -0.10979	  3.12622	709.19000	 16.60	
 18.690	-74.137	  2.60707	  1.44287	  0.43761	 -0.46686	  2.70908	 -0.10770	  3.12559	709.22998	 16.60	
 18.696	-79.417	  2.60690	  1.27880	  0.58490	 -0.49173	  2.75492	 -0.10654	  3.12710	709.20001	 16.60	
 18.700	-84.691	  2.60482	  1.11464	  0.73230	 -0.50811	  2.78086	 -0.10471	  3.12710	709.14001	 16.60	
 18.700	-90.000	  2.60371	  0.95366	  0.88891	 -0.51370	  2.79168	 -0.10343	  3.12690	709.13000	 16.60	
 18.700	-95.309	  2.59792	  0.79656	  1.04932	 -0.51062	  2.78171	 -0.10364	  3.12439	709.23999	 16.60	
 18.696	-100.583	  2.59903	  0.64304	  1.21458	 -0.49657	  2.75881	 -0.10055	  3.12639	709.25000	 16.60	
 18.690	-105.863	  2.59740	  0.49732	  1.37912	 -0.47227	  2.71428	 -0.10031	  3.12407	709.14001	 16.60	
 18.707	-111.165	  2.59558	  0.35748	  1.54307	 -0.44099	  2.65633	 -0.10195	  3.12590	709.07001	 16.60	
 18.698	-116.504	  2.59533	  0.22866	  1.70815	 -0.39465	  2.57788	 -0.10196	  3.12509	709.17999	 16.60	
 18.700	-121.794	  2.59603	  0.10800	  1.86399	 -0.34138	  2.48678	 -0.10579	  3.12656	709.09998	 16.60	
 18.713	-127.067	  2.59293	 -0.00541	  2.01459	 -0.28239	  2.38147	 -0.10649	  3.12662	709.21002	 16.60	
 18.705	-132.343	  2.59024	 -0.10825	  2.15694	 -0.20876	  2.25869	 -0.10819	  3.12456	709.22998	 16.60	
 18.699	-137.625	  2.58974	 -0.19637	  2.29134	 -0.12192	  2.12599	 -0.10781	  3.12732	709.17999	 16.60	
 18.698	-142.952	  2.58711	 -0.27990	  2.41120	 -0.02896	  1.97988	 -0.11265	  3.12525	709.10999	 16.60	
 18.704	-148.255	  2.58545	 -0.35093	  2.51917	  0.07360	  1.82856	 -0.11339	  3.12616	709.17999	 16.60	
 18.695	-153.537	  2.58379	 -0.40581	  2.61057	  0.19130	  1.67022	 -0.12332	  3.12529	709.63000	 16.60	
 18.706	-158.818	  2.58100	 -0.45501	  2.68845	  0.31726	  1.50605	 -0.12802	  3.12548	709.15002	 16.60	
 18.691	-164.085	  2.57976	 -0.49522	  2.74890	  0.44822	  1.34213	 -0.12772	  3.12682	709.10999	 16.60	
 18.703	-169.441	  2.57381	 -0.52554	  2.79156	  0.58844	  1.17467	 -0.13722	  3.12521	708.96997	 16.60	
 18.709	-174.675	  2.57242	 -0.54517	  2.81826	  0.73608	  1.00972	 -0.14152	  3.12499	708.98999	 16.60	
 18.700	180.000	  2.57031	 -0.55606	  2.82824	  0.89204	  0.84742	 -0.15114	  3.12660	709.07001	 16.60	
 20.400	180.000	  2.44845	 -0.72975	  2.90049	  0.79525	  0.76016	 -0.15410	  3.12090	709.08002	 16.60	
 20.401	-175.153	  2.45150	 -0.72396	  2.89480	  0.64400	  0.91941	 -0.14630	  3.12294	709.57001	 16.60	
 20.407	-170.264	  2.45453	 -0.70729	  2.87171	  0.49469	  1.08722	 -0.13776	  3.12394	709.09003	 16.60	
 20.410	-165.423	  2.45850	 -0.67889	  2.83364	  0.35856	  1.25027	 -0.13144	  3.12587	709.08002	 16.60	
 20.392	-160.496	  2.45968	 -0.64180	  2.77527	  0.22318	  1.41694	 -0.12823	  3.12259	709.79999	 16.60	
 20.401	-155.705	  2.46103	 -0.60009	  2.70498	  0.09923	  1.57854	 -0.12572	  3.12274	709.88000	 16.60	
 20.405	-150.835	  2.46297	 -0.54914	  2.61968	 -0.01573	  1.73780	 -0.11927	  3.12255	709.54999	 16.60	
 20.397	-145.903	  2.46827	 -0.48548	  2.51962	 -0.12446	  1.89629	 -0.11644	  3.12325	709.50000	 16.60	
 20.392	-141.062	  2.47312	 -0.40908	  2.40642	 -0.21533	  2.04767	 -0.11322	  3.12356	709.63000	 16.60	
 20.396	-136.227	  2.47259	 -0.33236	  2.28258	 -0.30765	  2.18728	 -0.10951	  3.12404	709.90002	 16.60	
 20.408	-131.372	  2.47530	 -0.24378	  2.14991	 -0.38398	  2.31807	 -0.10726	  3.12503	709.04999	 16.60	
 20.410	-126.511	  2.47817	 -0.14146	  2.00656	 -0.45375	  2.43869	 -0.10726	  3.12541	709.79999	 16.60	
 20.400	-121.604	  2.47750	 -0.03260	  1.85159	 -0.51458	  2.54603	 -0.10398	  3.12500	709.08002	 16.60	
 20.403	-116.741	  2.47499	  0.08599	  1.69196	 -0.56540	  2.63636	 -0.09996	  3.12025	709.14001	 16.60	
 20.413	-111.900	  2.47703	  0.21183	  1.53192	 -0.60884	  2.71564	 -0.09790	  3.12262	709.06000	 16.60	
 20.398	-107.004	  2.47972	  0.34665	  1.36623	 -0.64209	  2.77847	 -0.09798	  3.12366	709.67999	 16.60	
 20.394	-102.132	  2.47967	  0.49144	  1.20251	 -0.66338	  2.82291	 -0.09831	  3.12214	708.96002	 16.60	
 20.403	-97.332	  2.48341	  0.63733	  1.04263	 -0.67887	  2.85466	 -0.10257	  3.12262	709.00000	 16.60	
 20.392	-92.440	  2.48440	  0.79249	  0.88015	 -0.68506	  2.86681	 -0.10144	  3.12077	709.25000	 16.60	
 20.392	-87.560	  2.48667	  0.94996	  0.72460	 -0.68377	  2.86607	 -0.10409	  3.12188	709.71002	 16.60	
 20.403	-82.668	  2.48764	  1.11084	  0.56995	 -0.67888	  2.85220	 -0.10291	  3.12300	709.75000	 16.60	
 20.394	-77.868	  2.48778	  1.27153	  0.42614	 -0.65918	  2.81593	 -0.10420	  3.11922	709.04999	 16.60	
 20.398	-72.996	  2.49224	  1.43450	  0.28767	 -0.63242	  2.76873	 -0.10787	  3.12146	708.96002	 16.60	
 20.413	-68.100	  2.49256	  1.59769	  0.15598	 -0.59594	  2.70341	 -0.10708	  3.12131	708.91998	 16.60	
 20.403	-63.259	  2.49643	  1.75725	  0.03514	 -0.54911	  2.62369	 -0.11116	  3.12160	709.46997	 16.60	
 20.400	-58.396	  2.49822	  1.91278	 -0.07610	 -0.49416	  2.52709	 -0.11510	  3.12169	709.66998	 16.60	
 20.410	-53.489	  2.49822	  2.06303	 -0.18701	 -0.43163	  2.41709	 -0.11404	  3.12109	709.72998	 16.60	
 20.408	-48.628	  2.49673	  2.20223	 -0.28172	 -0.35949	  2.29599	 -0.11694	  3.12037	709.28003	 16.60	
 20.396	-43.773	  2.49920	  2.33042	 -0.36180	 -0.27695	  2.16875	 -0.12193	  3.12165	709.72998	 16.60	
 20.392	-38.938	  2.50283	  2.45002	 -0.43398	 -0.17968	  2.02776	 -0.12270	  3.12211	709.75000	 16.60	
 20.397	-34.097	  2.50301	  2.55482	 -0.49858	 -0.07902	  1.87799	 -0.12828	  3.11991	708.95001	 16.60	
 20.405	-29.165	  2.50230	  2.65226	 -0.55929	  0.03489	  1.71724	 -0.13351	  3.12071	708.95001	 16.60	
 20.401	-24.295	  2.50212	  2.73014	 -0.60649	  0.15325	  1.55849	 -0.13619	  3.12106	709.02002	 16.60	
 20.392	-19.504	  2.50328	  2.79555	 -0.64401	  0.28430	  1.39726	 -0.13771	  3.12309	709.66998	 16.60	
 20.410	-14.577	  2.49866	  2.84438	 -0.67653	  0.41968	  1.23020	 -0.14171	  3.12283	709.33002	 16.60	
 20.407	 -9.736	  2.49705	  2.87478	 -0.69780	  0.56214	  1.06620	 -0.14590	  3.12081	709.71997	 16.60	
 20.401	 -4.847	  2.49256	  2.88942	 -0.70868	  0.71691	  0.89951	 -0.15256	  3.11810	709.67999	 16.60	
 20.400	  0.000	  2.49514	  2.89490	 -0.71037	  0.87409	  0.74392	 -0.15482	  3.12239	709.25000	 16.60	
 20.401	  4.847	  2.49058	  2.88140	 -0.70788	  1.03187	  0.58676	 -0.15931	  3.12104	708.98999	 16.60	
 20.407	  9.736	  2.48781	  2.85438	 -0.69872	  1.19688	  0.43323	 -0.16663	  3.12305	709.56000	 16.60	
 20.410	 14.577	  2.48910	  2.81406	 -0.67881	  1.36003	  0.29445	 -0.17582	  3.12628	709.53003	 16.60	
 20.392	 19.504	  2.48268	  2.74827	 -0.64512	  1.52574	  0.15760	 -0.17919	  3.12251	709.59998	 16.60	
 20.401	 24.295	  2.47667	  2.67482	 -0.61193	  1.68402	  0.03052	 -0.18561	  3.12153	708.85999	 16.60	
 20.405	 29.165	  2.47590	  2.58524	 -0.56158	  1.84213	 -0.08596	 -0.18823	  3.12260	708.84003	 16.60	
 20.397	 34.097	  2.47533	  2.47860	 -0.50303	  1.99831	 -0.19509	 -0.19321	  3.12425	709.38000	 16.60	
 20.392	 38.938	  2.47020	  2.35860	 -0.43463	  2.14301	 -0.29489	 -0.20171	  3.12092	709.42999	 16.60	
 20.396	 43.773	  2.46664	  2.23002	 -0.36153	  2.27948	 -0.38654	 -0.20817	  3.11975	708.91998	 16.60	
 20.408	 48.628	  2.46482	  2.09290	 -0.27552	  2.40358	 -0.46339	 -0.21414	  3.12016	708.90002	 16.60	
 20.410	 53.489	  2.46332	  1.94313	 -0.17815	  2.52193	 -0.53798	 -0.21935	  3.12192	708.88000	 16.60	
 20.400	 58.396	  2.46341	  1.78795	 -0.07033	  2.62687	 -0.59873	 -0.22590	  3.12451	709.65002	 16.60	
 20.403	 63.259	  2.46091	  1.62906	  0.04555	  2.71379	 -0.64856	 -0.22658	  3.12294	709.39001	 16.60	
 20.413	 68.100	  2.45886	  1.46443	  0.17178	  2.78789	 -0.69072	 -0.23073	  3.12229	709.34003	 16.60	
 20.398	 72.996	  2.45916	  1.30073	  0.30584	  2.84493	 -0.72169	 -0.22833	  3.12386	708.97998	 16.60	
 20.394	 77.868	  2.46116	  1.13924	  0.44778	  2.88808	 -0.74353	 -0.23313	  3.12437	708.87000	 16.60	
 20.403	 82.668	  2.45526	  0.97603	  0.59200	  2.91073	 -0.76079	 -0.23534	  3.12076	708.90997	 16.60	
 20.392	 87.560	  2.45669	  0.81694	  0.74673	  2.92327	 -0.76706	 -0.24067	  3.12286	709.60999	 16.60	
 20.392	 92.440	  2.45333	  0.66234	  0.90320	  2.91808	 -0.76672	 -0.24156	  3.12129	709.31000	 16.60	
 20.403	 97.332	  2.44989	  0.50704	  1.06627	  2.90069	 -0.76099	 -0.24091	  3.12168	709.66998	 16.60	
 20.394	102.132	  2.44523	  0.36492	  1.22921	  2.86585	 -0.74261	 -0.24397	  3.12145	709.13000	 16.60	
 20.398	107.004	  2.44492	  0.22767	  1.39158	  2.81804	 -0.71969	 -0.24033	  3.12300	709.60999	 16.60	
 20.413	111.900	  2.44147	  0.09652	  1.55537	  2.75236	 -0.68763	 -0.24027	  3.12411	709.58002	 16.60	
 20.403	116.741	  2.43959	 -0.02138	  1.71623	  2.67034	 -0.64172	 -0.23695	  3.12277	709.56000	 16.60	
 20.400	121.604	  2.43941	 -0.13083	  1.87288	  2.57422	 -0.58951	 -0.23255	  3.12271	709.15002	 16.60	
 20.410	126.511	  2.43914	 -0.23415	  2.02640	  2.46398	 -0.52674	 -0.22961	  3.12348	709.46997	 16.60	
 20.408	131.372	  2.43784	 -0.32616	  2.16958	  2.34397	 -0.45564	 -0.22484	  3.12461	709.58002	 16.60	
 20.396	136.227	  2.43771	 -0.40762	  2.30341	  2.21332	 -0.37594	 -0.22270	  3.12521	709.34003	 16.60	
 20.392	141.062	  2.43601	 -0.47903	  2.42108	  2.07077	 -0.28458	 -0.21495	  3.12235	708.88000	 16.60	
 20.397	145.903	  2.43676	 -0.54274	  2.53375	  1.92068	 -0.18425	 -0.21119	  3.12158	709.65002	 16.60	
 20.405	150.835	  2.43671	 -0.59993	  2.63322	  1.76236	 -0.07447	 -0.20186	  3.12304	709.54999	 16.60	
 20.401	155.705	  2.43345	 -0.64438	  2.71312	  1.60168	  0.04141	 -0.19242	  3.11853	708.89001	 16.60	
 20.392	160.496	  2.44145	 -0.67684	  2.78353	  1.44612	  0.16980	 -0.18639	  3.12375	709.13000	 16.60	
 20.410	165.423	  2.44330	 -0.70547	  2.83826	  1.27881	  0.30803	 -0.17998	  3.12306	709.06000	 16.60	
 20.407	170.264	  2.44602	 -0.72177	  2.87393	  1.11858	  0.45005	 -0.17172	  3.12319	709.65002	 16.60	
 20.401	175.153	  2.44884	 -0.73056	  2.89688	  0.95499	  0.60260	 -0.16167	  3.12351	709.69000	 16.60	
  0.141	 45.000	  3.12566	  1.37694	  1.36071	  1.42103	  1.30569	  0.07021	  3.12291	709.60999	 16.60	
  4.001	128.691	  3.11204	  1.09022	  1.57444	  1.67124	  0.99800	  0.04582	  3.12309	709.59003	 16.60	
  4.002	 76.995	  3.11510	  1.39715	  1.25487	  1.75522	  0.93407	  0.05949	  3.12367	709.00000	 16.60	
  4.002	 25.892	  3.11957	  1.67269	  1.02056	  1.54167	  1.11921	  0.06493	  3.12420	708.85999	 16.60	
  4.002	-25.892	  3.12036	  1.68363	  1.02264	  1.22014	  1.43636	  0.05667	  3.12409	709.41998	 16.60	
  4.002	-76.995	  3.12045	  1.42466	  1.25398	  1.03936	  1.65315	  0.04527	  3.12257	709.50000	 16.60	
  4.001	-128.691	  3.12056	  1.11806	  1.57140	  1.09342	  1.57764	  0.03901	  3.12428	709.67999	 16.60	
  4.000	180.000	  3.11714	  0.98265	  1.72546	  1.36710	  1.28028	  0.03906	  3.12365	708.88000	 16.60	
  8.000	180.000	  3.05004	  0.54597	  2.09119	  1.28909	  1.20824	 -0.01529	  3.12213	709.09998	 16.60	
  7.991	-152.370	  3.06046	  0.63198	  1.99507	  0.94642	  1.57989	 -0.01784	  3.12583	709.03998	 16.60	
  7.997	-124.550	  3.06579	  0.86029	  1.72374	  0.69990	  1.88612	 -0.02096	  3.12638	709.73999	 16.60	
  8.006	-96.837	  3.06769	  1.19653	  1.35601	  0.59330	  2.03207	 -0.01490	  3.12676	708.94000	 16.60	
  7.988	-69.228	  3.06807	  1.56786	  0.99741	  0.63978	  1.97664	 -0.01041	  3.12397	709.03998	 16.60	
  7.997	-41.563	  3.06424	  1.88367	  0.72476	  0.82771	  1.73928	  0.00128	  3.12009	709.27002	 16.60	
  8.008	-13.821	  3.06440	  2.06583	  0.57588	  1.13656	  1.38631	  0.01500	  3.12239	709.65997	 16.60	
  8.008	 13.821	  3.06183	  2.05205	  0.57584	  1.50740	  1.01801	  0.02399	  3.12479	709.59003	 16.60	
  7.997	 41.563	  3.05461	  1.84689	  0.72540	  1.85055	  0.71802	  0.02430	  3.12111	709.75000	 16.60	
  7.988	 69.228	  3.05281	  1.50945	  1.00528	  2.07908	  0.53306	  0.01796	  3.12372	708.87000	 16.60	
  8.006	 96.837	  3.04476	  1.13510	  1.36294	  2.11919	  0.49379	  0.00465	  3.12038	709.71002	 16.60	
  7.997	124.550	  3.04423	  0.81486	  1.72775	  1.96361	  0.61203	 -0.00041	  3.12304	709.72998	 16.60	
  7.991	152.370	  3.04222	  0.60831	  1.99367	  1.65861	  0.86225	 -0.01233	  3.12012	709.28003	 16.60	
 12.009	161.059	  2.91354	  0.14754	  2.34414	  1.55699	  0.73621	 -0.08084	  3.12240	709.75000	 16.60	
 12.013	142.081	  2.90941	  0.28489	  2.14122	  1.92103	  0.43263	 -0.08065	  3.12218	709.82001	 16.60	
 12.006	123.113	  2.90848	  0.51841	  1.82842	  2.21533	  0.21353	 -0.07175	  3.12148	709.03998	 16.60	
 12.007	104.200	  2.91185	  0.82980	  1.45626	  2.39779	  0.08707	 -0.07300	  3.12188	709.28003	 16.60	
 11.989	 85.301	  2.91797	  1.20011	  1.07086	  2.44134	  0.06140	 -0.05804	  3.12175	709.77002	 16.60	
 12.013	 66.294	  2.92319	  1.59319	  0.71215	  2.34796	  0.13064	 -0.05305	  3.12384	709.81000	 16.60	
 12.012	 47.388	  2.92348	  1.94682	  0.42759	  2.11985	  0.29770	 -0.04567	  3.12104	709.84003	 16.60	
 11.990	 28.440	  2.93091	  2.21974	  0.23585	  1.78900	  0.56398	 -0.03751	  3.12019	709.40002	 16.60	
 11.991	  9.464	  2.94056	  2.37852	  0.13861	  1.40982	  0.90299	 -0.04261	  3.12390	709.75000	 16.60	
 11.991	 -9.464	  2.94623	  2.39280	  0.13994	  1.02829	  1.28464	 -0.04530	  3.12292	709.79999	 16.60	
 11.990	-28.440	  2.94472	  2.26377	  0.23527	  0.68588	  1.66550	 -0.05980	  3.11852	709.26001	 16.60	
 12.012	-47.388	  2.94524	  2.01260	  0.42733	  0.41489	  2.00556	 -0.06941	  3.12009	709.72998	 16.60	
 12.013	-66.294	  2.94799	  1.67246	  0.70859	  0.24062	  2.24675	 -0.07331	  3.12372	709.71997	 16.60	
 11.989	-85.301	  2.94502	  1.28795	  1.05884	  0.16285	  2.35636	 -0.07505	  3.12376	709.75000	 16.60	
 12.007	-104.200	  2.93981	  0.91068	  1.44342	  0.17930	  2.32254	 -0.07305	  3.12296	709.79999	 16.60	
 12.006	-123.113	  2.93913	  0.58454	  1.81934	  0.29508	  2.15383	 -0.07565	  3.12580	709.77002	 16.60	
 12.013	-142.081	  2.93403	  0.33044	  2.13332	  0.51014	  1.85936	 -0.07198	  3.12406	709.78003	 16.60	
 12.009	-161.059	  2.92748	  0.16874	  2.34350	  0.80857	  1.49199	 -0.08052	  3.12448	709.72998	 16.60	
 16.000	180.000	  2.73179	 -0.29606	  2.67891	  1.01289	  0.96116	 -0.12922	  3.12472	709.78003	 16.60	
 15.990	-165.604	  2.73931	 -0.24855	  2.62391	  0.65678	  1.34988	 -0.12026	  3.12418	709.76001	 16.60	
 16.002	-151.165	  2.74126	 -0.13874	  2.45866	  0.34179	  1.73389	 -0.10940	  3.12183	709.78003	 16.60	
 16.002	-136.836	  2.74926	  0.04377	  2.20273	  0.09523	  2.07988	 -0.10128	  3.12415	709.72998	 16.60	
 15.995	-122.439	  2.75210	  0.29543	  1.86999	 -0.08949	  2.36362	 -0.09675	  3.12420	709.75000	 16.60	
 15.993	-107.966	  2.75613	  0.60828	  1.48957	 -0.20676	  2.55434	 -0.09347	  3.12471	709.72998	 16.60	
 16.005	-93.629	  2.75726	  0.96486	  1.09751	 -0.25518	  2.63406	 -0.09433	  3.12358	709.23999	 16.60	
 15.992	-79.234	  2.76340	  1.34963	  0.72842	 -0.23356	  2.60370	 -0.09559	  3.12469	709.76001	 16.60	
 16.009	-64.774	  2.76441	  1.73277	  0.39442	 -0.14750	  2.46257	 -0.09999	  3.12489	709.70001	 16.60	
 15.997	-50.364	  2.77065	  2.08656	  0.12602	  0.01482	  2.21855	 -0.10660	  3.12630	709.71997	 16.60	
 15.997	-36.045	  2.76964	  2.37411	 -0.07619	  0.24197	  1.90054	 -0.10941	  3.12588	709.71997	 16.60	
 16.000	-21.597	  2.76605	  2.57099	 -0.21319	  0.53637	  1.52338	 -0.10833	  3.12219	709.66998	 16.60	
 16.003	 -7.169	  2.76333	  2.66694	 -0.28052	  0.88499	  1.13018	 -0.10660	  3.12484	709.09998	 16.60	
 16.003	  7.169	  2.75722	  2.65399	 -0.28302	  1.26355	  0.75143	 -0.11026	  3.12570	709.78003	 16.60	
 16.000	 21.597	  2.75214	  2.53194	 -0.21716	  1.65283	  0.41002	 -0.10863	  3.12657	709.28003	 16.60	
 15.997	 36.045	  2.74212	  2.30173	 -0.07787	  2.01953	  0.12089	 -0.11448	  3.12291	709.67999	 16.60	
 15.997	 50.364	  2.73903	  1.99568	  0.13149	  2.32931	 -0.09799	 -0.13030	  3.12568	709.88000	 16.60	
 16.009	 64.774	  2.73300	  1.62743	  0.40876	  2.55483	 -0.24743	 -0.13903	  3.12171	709.81000	 16.60	
 15.992	 79.234	  2.73447	  1.23963	  0.74457	  2.68165	 -0.32623	 -0.13771	  3.12464	709.85999	 16.60	
 16.005	 93.629	  2.73038	  0.85942	  1.11894	  2.69993	 -0.33931	 -0.14931	  3.12510	709.75000	 16.60	
 15.993	107.966	  2.71968	  0.51252	  1.50495	  2.60658	 -0.28637	 -0.15595	  3.11989	709.79999	 16.60	
 15.995	122.439	  2.71661	  0.21370	  1.88104	  2.41345	 -0.17061	 -0.15503	  3.12226	709.00000	 16.60	
 16.002	136.836	  2.71757	 -0.01597	  2.21215	  2.12888	  0.02045	 -0.15716	  3.12386	709.72998	 16.60	
 16.002	151.165	  2.71838	 -0.18169	  2.46802	  1.78184	  0.27362	 -0.15519	  3.12396	709.71002	 16.60	
 15.990	165.604	  2.72436	 -0.27363	  2.62590	  1.39816	  0.59068	 -0.14071	  3.12567	709.69000	 16.60	
 20.003	168.362	  2.47450	 -0.67417	  2.84488	  1.19779	  0.42144	 -0.17133	  3.12417	708.90002	 16.60	
 20.008	156.764	  2.46810	 -0.61249	  2.71896	  1.57885	  0.10003	 -0.18971	  3.12409	709.79999	 16.60	
 20.000	145.147	  2.46675	 -0.49347	  2.50651	  1.94739	 -0.16705	 -0.20687	  3.12268	709.53998	 16.60	
 19.995	133.545	  2.46659	 -0.32895	  2.22404	  2.28237	 -0.38686	 -0.22137	  3.12501	709.64001	 16.60	
 20.009	121.926	  2.46869	 -0.10169	  1.88561	  2.55758	 -0.54445	 -0.22968	  3.12411	709.58002	 16.60	
 20.005	110.327	  2.47222	  0.17549	  1.51206	  2.76014	 -0.65408	 -0.23352	  3.12294	709.53998	 16.60	
 19.989	 98.733	  2.47747	  0.49387	  1.12941	  2.87525	 -0.71439	 -0.23610	  3.12152	708.98999	 16.60	
 19.999	 87.075	  2.48280	  0.85256	  0.75011	  2.90768	 -0.72966	 -0.23442	  3.12385	709.37000	 16.60	
 19.992	 75.457	  2.48693	  1.23232	  0.40457	  2.85205	 -0.69429	 -0.22585	  3.12260	709.72998	 16.60	
 20.009	 63.844	  2.48762	  1.61646	  0.09190	  2.70872	 -0.61278	 -0.22457	  3.12180	709.15002	 16.60	
 19.989	 52.269	  2.49486	  1.98126	 -0.16325	  2.48620	 -0.47879	 -0.21330	  3.12277	709.62000	 16.60	
 19.999	 40.602	  2.49521	  2.30907	 -0.37643	  2.19013	 -0.29511	 -0.19704	  3.12358	709.63000	 16.60	
 20.004	 29.051	  2.50201	  2.57158	 -0.52195	  1.84320	 -0.05068	 -0.18348	  3.12014	709.69000	 16.60	
 20.005	 17.433	  2.51229	  2.76413	 -0.62077	  1.46730	  0.24184	 -0.17192	  3.12471	709.63000	 16.60	
 20.006	  5.780	  2.51863	  2.86406	 -0.66837	  1.08326	  0.57867	 -0.16131	  3.12554	709.67999	 16.60	
 20.006	 -5.780	  2.52174	  2.87558	 -0.66932	  0.71259	  0.94507	 -0.14779	  3.12184	709.70001	 16.60	
 20.005	-17.433	  2.53013	  2.80529	 -0.62093	  0.37153	  1.33445	 -0.13758	  3.12377	709.65002	 16.60	
 20.004	-29.051	  2.53193	  2.64344	 -0.52008	  0.07210	  1.71850	 -0.12888	  3.12352	709.70001	 16.60	
 19.999	-40.602	  2.53278	  2.40532	 -0.37302	 -0.17542	  2.07324	 -0.12347	  3.12512	709.65997	 16.60	
 19.989	-52.269	  2.53189	  2.09791	 -0.16986	 -0.36891	  2.37891	 -0.11457	  3.12382	709.65997	 16.60	
 20.009	-63.844	  2.52511	  1.74562	  0.08267	 -0.51380	  2.62142	 -0.10947	  3.12371	709.20001	 16.70	
 19.992	-75.457	  2.51642	  1.36614	  0.38565	 -0.60306	  2.77595	 -0.10683	  3.11924	709.67999	 16.60	
 19.999	-87.075	  2.51684	  0.98640	  0.73148	 -0.64396	  2.85117	 -0.10513	  3.12563	709.65997	 16.60	
 19.989	-98.733	  2.51135	  0.61838	  1.10495	 -0.63474	  2.82952	 -0.09751	  3.12401	709.71997	 16.60	
 20.005	-110.327	  2.50786	  0.28661	  1.48843	 -0.57757	  2.72255	 -0.09667	  3.12366	709.73999	 16.60	
 20.009	-121.926	  2.50421	 -0.00393	  1.86560	 -0.46741	  2.52439	 -0.10196	  3.12177	709.58002	 16.60	
 19.995	-133.545	  2.50071	 -0.24824	  2.20700	 -0.31148	  2.25076	 -0.10334	  3.12175	709.60999	 16.60	
 20.000	-145.147	  2.49677	 -0.43494	  2.49356	 -0.10131	  1.91903	 -0.11285	  3.12215	708.84998	 16.60	
 20.008	-156.764	  2.48716	 -0.57133	  2.70825	  0.15903	  1.54635	 -0.12184	  3.12091	708.90002	 16.60	
 20.003	-168.362	  2.48273	 -0.65581	  2.84166	  0.46560	  1.16547	 -0.13257	  3.12281	708.83002	 16.60	
 20.000	180.000	  2.47842	 -0.68983	  2.88616	  0.82009	  0.78102	 -0.14983	  3.12325	708.87000	 16.60	
