FileType=PCF
NHL=14
Date=03/08/19	11:01:06
Facility=APL
Serial=16071-5
Customer=NASA
NP=6
Mach=0.036000
Calibration=1:1
CalPts=490
TstPts=95
PortNumbering=AP Standard
Units=Torr C m/s kg/m^3 deg mm 
Theta[deg]	Phi[deg]	P1[Torr]	P2[Torr]	P3[Torr]	P4[Torr]	P5[Torr]	P6[Torr]	Pt[Torr]	Ps[Abs,Torr]	Ts[C]	
  0.000	  0.000	  0.64544	  0.29858	  0.29387	  0.31250	  0.28398	  0.04394	  0.64454	709.90997	 16.00	
  1.691	128.401	  0.64467	  0.27874	  0.31294	  0.33236	  0.26134	  0.04210	  0.64465	709.96997	 16.00	
  1.692	 77.194	  0.65009	  0.30350	  0.28971	  0.34218	  0.25626	  0.04321	  0.64955	709.98999	 16.00	
  1.699	 26.182	  0.65044	  0.32509	  0.27043	  0.32507	  0.27170	  0.04297	  0.65005	709.97998	 16.00	
  1.699	-26.182	  0.64673	  0.32373	  0.26945	  0.29737	  0.29320	  0.03956	  0.64631	710.07001	 16.00	
  1.692	-77.194	  0.64415	  0.30320	  0.28666	  0.28301	  0.31024	  0.03824	  0.64523	710.04999	 15.90	
  1.691	-128.401	  0.65089	  0.28312	  0.31364	  0.28965	  0.30721	  0.03721	  0.65217	709.97998	 15.90	
  1.700	180.000	  0.65079	  0.27115	  0.32716	  0.31099	  0.28459	  0.03849	  0.65131	710.09998	 15.90	
  3.400	180.000	  0.64482	  0.23506	  0.35909	  0.30459	  0.28019	  0.03495	  0.64620	710.12000	 15.90	
  3.388	-152.325	  0.64521	  0.24350	  0.35020	  0.27757	  0.30921	  0.03419	  0.64649	710.08002	 15.90	
  3.397	-124.529	  0.64824	  0.26323	  0.32906	  0.25841	  0.33452	  0.03247	  0.64979	710.15002	 15.90	
  3.399	-96.763	  0.64050	  0.28639	  0.29673	  0.24620	  0.34226	  0.03265	  0.64343	710.09003	 15.90	
  3.394	-69.283	  0.65246	  0.32027	  0.27365	  0.25368	  0.34383	  0.03390	  0.65530	710.06000	 15.90	
  3.400	-41.398	  0.64479	  0.34328	  0.24745	  0.26809	  0.32124	  0.03506	  0.64668	710.12000	 15.80	
  3.401	-14.021	  0.65075	  0.36111	  0.23716	  0.29512	  0.29708	  0.03823	  0.65248	710.09003	 15.90	
  3.401	 14.021	  0.64901	  0.35994	  0.23746	  0.32414	  0.26741	  0.04223	  0.64985	710.07001	 15.80	
  3.400	 41.398	  0.64680	  0.34375	  0.24772	  0.35098	  0.24193	  0.04468	  0.64717	710.07001	 15.80	
  3.394	 69.283	  0.64557	  0.31633	  0.27100	  0.37087	  0.22565	  0.04519	  0.64696	710.15997	 15.80	
  3.399	 96.763	  0.64500	  0.28634	  0.30120	  0.37416	  0.22348	  0.04515	  0.64576	710.03998	 15.80	
  3.397	124.529	  0.64992	  0.26317	  0.33037	  0.36345	  0.23597	  0.04288	  0.65096	710.12000	 15.80	
  3.388	152.325	  0.64966	  0.24400	  0.35388	  0.33810	  0.25608	  0.03886	  0.65085	710.23999	 15.80	
  5.099	161.165	  0.64364	  0.20707	  0.38570	  0.33369	  0.24896	  0.03351	  0.64766	710.09003	 15.80	
  5.109	142.013	  0.64298	  0.21966	  0.37000	  0.36334	  0.22306	  0.03672	  0.64774	710.04999	 15.80	
  5.095	123.033	  0.64087	  0.24068	  0.34362	  0.38632	  0.20426	  0.04046	  0.64499	710.20001	 15.80	
  5.105	104.191	  0.64634	  0.26826	  0.31582	  0.40393	  0.19320	  0.04247	  0.64943	710.09998	 15.80	
  5.093	 85.207	  0.63951	  0.29723	  0.27949	  0.40626	  0.18658	  0.04209	  0.64328	710.10999	 15.80	
  5.104	 66.290	  0.64741	  0.33236	  0.25224	  0.40201	  0.19531	  0.04291	  0.65091	710.00000	 15.80	
  5.094	 47.331	  0.64496	  0.35872	  0.22618	  0.38038	  0.20910	  0.04278	  0.64692	710.08002	 15.80	
  5.089	 28.397	  0.64724	  0.38129	  0.21036	  0.35375	  0.23397	  0.04274	  0.65183	710.12000	 15.80	
  5.096	  9.576	  0.64921	  0.39387	  0.20093	  0.32288	  0.26210	  0.04021	  0.65248	710.04999	 15.80	
  5.096	 -9.576	  0.64785	  0.39301	  0.20071	  0.29029	  0.29355	  0.03758	  0.65011	710.07001	 15.80	
  5.089	-28.397	  0.63820	  0.37713	  0.20857	  0.25719	  0.32076	  0.03475	  0.64251	710.01001	 15.80	
  5.094	-47.331	  0.64279	  0.36033	  0.22576	  0.23461	  0.34872	  0.03041	  0.64817	710.08002	 15.80	
  5.104	-66.290	  0.64401	  0.33219	  0.24948	  0.21930	  0.36802	  0.02792	  0.64919	709.96997	 15.80	
  5.093	-85.207	  0.64294	  0.30067	  0.27881	  0.21155	  0.37655	  0.02586	  0.64763	710.06000	 15.80	
  5.105	-104.191	  0.64359	  0.27041	  0.31010	  0.21293	  0.37489	  0.02376	  0.64851	710.08002	 15.80	
  5.095	-123.033	  0.64400	  0.24398	  0.34142	  0.22421	  0.36202	  0.02503	  0.64932	710.03998	 15.80	
  5.109	-142.013	  0.64345	  0.22251	  0.36576	  0.24280	  0.33881	  0.02724	  0.64784	710.01001	 15.80	
  5.099	-161.165	  0.64253	  0.20731	  0.38352	  0.26826	  0.30908	  0.02868	  0.64763	710.06000	 15.80	
  5.100	180.000	  0.64779	  0.20329	  0.39339	  0.30223	  0.28046	  0.03007	  0.65259	709.95001	 15.80	
  6.800	180.000	  0.63839	  0.16755	  0.42132	  0.29492	  0.27322	  0.02327	  0.64875	710.04999	 15.80	
  6.796	-166.229	  0.63985	  0.17059	  0.41823	  0.26455	  0.30479	  0.02057	  0.64857	710.03998	 15.80	
  6.808	-152.311	  0.64124	  0.18219	  0.40448	  0.23671	  0.33527	  0.01987	  0.65056	710.07001	 15.80	
  6.795	-138.383	  0.63918	  0.19793	  0.38308	  0.21207	  0.36162	  0.01735	  0.64917	710.08002	 15.80	
  6.792	-124.591	  0.63777	  0.21902	  0.35702	  0.19470	  0.38261	  0.01567	  0.64849	710.10999	 15.80	
  6.787	-110.754	  0.63713	  0.24456	  0.32718	  0.18272	  0.39748	  0.01604	  0.64626	710.09998	 15.80	
  6.800	-96.985	  0.64017	  0.27425	  0.29677	  0.17685	  0.40721	  0.01630	  0.64935	710.10999	 15.80	
  6.800	-83.015	  0.64189	  0.30568	  0.26656	  0.17683	  0.40900	  0.01729	  0.65291	710.02002	 15.80	
  6.787	-69.246	  0.63831	  0.33486	  0.23694	  0.18357	  0.39711	  0.01849	  0.64757	710.09003	 15.80	
  6.792	-55.409	  0.63970	  0.36505	  0.21228	  0.19610	  0.38314	  0.01952	  0.65082	710.03998	 15.80	
  6.795	-41.617	  0.64097	  0.39003	  0.19186	  0.21410	  0.36319	  0.02237	  0.64970	710.04999	 15.80	
  6.808	-27.689	  0.64132	  0.40894	  0.17697	  0.23903	  0.33479	  0.02447	  0.65116	710.08002	 15.80	
  6.796	-13.771	  0.64417	  0.42308	  0.16768	  0.26975	  0.30495	  0.02779	  0.65089	710.15002	 15.80	
  6.800	  0.000	  0.63861	  0.42208	  0.16540	  0.29810	  0.27146	  0.03264	  0.64499	710.20001	 15.80	
  6.796	 13.771	  0.63430	  0.41613	  0.16721	  0.32874	  0.24024	  0.03549	  0.64132	710.15997	 15.80	
  6.808	 27.689	  0.64475	  0.40989	  0.17879	  0.36659	  0.21529	  0.03981	  0.65296	710.00000	 15.80	
  6.795	 41.617	  0.63751	  0.38463	  0.19355	  0.39004	  0.18926	  0.04102	  0.64431	710.09003	 15.80	
  6.792	 55.409	  0.64369	  0.36255	  0.21728	  0.41537	  0.17603	  0.04193	  0.64910	710.06000	 15.80	
  6.787	 69.246	  0.64282	  0.33222	  0.24278	  0.43056	  0.16341	  0.04297	  0.64741	709.92999	 15.80	
  6.800	 83.015	  0.63848	  0.29996	  0.27132	  0.43503	  0.15715	  0.04166	  0.64516	710.09003	 15.80	
  6.800	 96.985	  0.64150	  0.27042	  0.30340	  0.43693	  0.15732	  0.03979	  0.64798	710.02002	 15.80	
  6.787	110.754	  0.64062	  0.24115	  0.33439	  0.42730	  0.16388	  0.03781	  0.64798	709.98999	 15.80	
  6.792	124.591	  0.64053	  0.21446	  0.36438	  0.41124	  0.17532	  0.03617	  0.64825	709.92999	 15.80	
  6.795	138.383	  0.64244	  0.19542	  0.39058	  0.38943	  0.19487	  0.03115	  0.65061	710.04999	 15.80	
  6.808	152.311	  0.63768	  0.17947	  0.40620	  0.35740	  0.21667	  0.02938	  0.64614	710.04999	 15.80	
  6.796	166.229	  0.64319	  0.17189	  0.42180	  0.32862	  0.24569	  0.02794	  0.65198	709.96002	 15.80	
  8.491	168.704	  0.63268	  0.13346	  0.45013	  0.32082	  0.23662	  0.01808	  0.64879	710.06000	 15.80	
  8.502	157.493	  0.63068	  0.14087	  0.44035	  0.35394	  0.20683	  0.02394	  0.64792	710.00000	 15.80	
  8.494	146.194	  0.63371	  0.15342	  0.42508	  0.38584	  0.18184	  0.02396	  0.64939	709.97998	 15.80	
  8.495	135.039	  0.63319	  0.17188	  0.40297	  0.41266	  0.16137	  0.02718	  0.64819	710.07001	 15.80	
  8.487	123.723	  0.63500	  0.19411	  0.37728	  0.43663	  0.14476	  0.02966	  0.64898	709.90997	 15.90	
  8.492	112.575	  0.63740	  0.21887	  0.34769	  0.45547	  0.13226	  0.03217	  0.65111	709.94000	 15.80	
  8.510	101.220	  0.63436	  0.24700	  0.31439	  0.46479	  0.12316	  0.03376	  0.64877	710.03003	 15.90	
  8.500	 90.000	  0.63526	  0.27868	  0.28223	  0.47022	  0.12011	  0.03618	  0.64975	710.02002	 15.80	
  8.510	 78.780	  0.63811	  0.31136	  0.25147	  0.46955	  0.12146	  0.03669	  0.65066	710.03998	 15.80	
  8.492	 67.425	  0.63660	  0.34294	  0.22043	  0.45766	  0.12856	  0.03774	  0.65013	710.02002	 15.80	
  8.487	 56.277	  0.63602	  0.37256	  0.19445	  0.44024	  0.14126	  0.03782	  0.64940	709.97998	 15.80	
  8.495	 44.961	  0.63237	  0.39868	  0.17087	  0.41599	  0.15730	  0.03685	  0.64581	710.01001	 15.90	
  8.494	 33.806	  0.64125	  0.42521	  0.15533	  0.39488	  0.18051	  0.03484	  0.65497	710.03003	 15.90	
  8.502	 22.507	  0.63301	  0.43708	  0.14051	  0.35860	  0.20386	  0.03386	  0.64636	710.03003	 15.90	
  8.491	 11.296	  0.63810	  0.45169	  0.13135	  0.32883	  0.23223	  0.02847	  0.65160	710.07001	 15.90	
  8.500	  0.000	  0.63382	  0.45391	  0.12772	  0.29351	  0.26237	  0.02606	  0.64843	709.97998	 15.90	
  8.491	-11.296	  0.63326	  0.45053	  0.13175	  0.26238	  0.29414	  0.02017	  0.64635	710.09998	 15.90	
  8.502	-22.507	  0.63270	  0.43858	  0.13919	  0.23266	  0.32419	  0.01817	  0.64866	709.96002	 15.80	
  8.494	-33.806	  0.63312	  0.42409	  0.15091	  0.20514	  0.35583	  0.01850	  0.64823	710.04999	 15.90	
  8.495	-44.961	  0.63178	  0.40181	  0.16785	  0.18308	  0.38282	  0.01210	  0.64844	710.03998	 15.80	
  8.487	-56.277	  0.63385	  0.37530	  0.19060	  0.16403	  0.40587	  0.01103	  0.65018	710.00000	 15.90	
  8.492	-67.425	  0.63016	  0.34463	  0.21390	  0.15040	  0.42037	  0.00656	  0.64711	709.88000	 15.90	
  8.510	-78.780	  0.62677	  0.31205	  0.24141	  0.14201	  0.42913	  0.00742	  0.64566	710.03003	 15.90	
  8.500	-90.000	  0.62752	  0.27950	  0.27246	  0.13970	  0.43053	  0.00741	  0.64504	709.96997	 15.90	
  8.510	-101.220	  0.63149	  0.24987	  0.30652	  0.14089	  0.43208	  0.00605	  0.64905	710.03998	 15.90	
  8.492	-112.575	  0.62814	  0.21873	  0.33823	  0.14739	  0.42029	  0.00605	  0.64727	710.04999	 15.90	
  8.487	-123.723	  0.62914	  0.19575	  0.36700	  0.16092	  0.40495	  0.00609	  0.64705	709.92999	 15.90	
  8.495	-135.039	  0.63004	  0.17348	  0.39498	  0.17899	  0.38454	  0.00843	  0.64804	710.03003	 15.90	
  8.494	-146.194	  0.62754	  0.15591	  0.41596	  0.19977	  0.35746	  0.01019	  0.64608	709.98999	 15.90	
  8.502	-157.493	  0.62587	  0.14140	  0.43283	  0.22406	  0.32667	  0.01316	  0.64256	710.06000	 15.90	
  8.491	-168.704	  0.62747	  0.13385	  0.44498	  0.25467	  0.29625	  0.01503	  0.64558	709.85999	 15.90	
  8.500	180.000	  0.63259	  0.13247	  0.45288	  0.28882	  0.26754	  0.01704	  0.64866	709.91998	 15.90	
 10.200	180.000	  0.62280	  0.09695	  0.47929	  0.27949	  0.25881	  0.00873	  0.64852	709.90997	 15.90	
 10.191	-170.497	  0.61772	  0.09946	  0.47150	  0.24672	  0.28839	  0.00666	  0.64308	709.96002	 15.90	
 10.210	-161.034	  0.62188	  0.10566	  0.46600	  0.21796	  0.32266	  0.00581	  0.64946	709.92999	 15.90	
 10.194	-151.526	  0.61803	  0.11634	  0.44726	  0.18839	  0.35162	  0.00429	  0.64531	709.84003	 15.90	
 10.190	-142.105	  0.62003	  0.13138	  0.42897	  0.16503	  0.38078	  0.00289	  0.64710	709.94000	 15.90	
 10.215	-132.646	  0.62222	  0.14980	  0.40600	  0.14264	  0.40786	 -0.00089	  0.65083	709.91998	 15.90	
 10.203	-123.092	  0.62232	  0.17405	  0.37640	  0.12635	  0.43021	 -0.00458	  0.65112	709.98999	 15.90	
 10.192	-113.678	  0.61982	  0.20000	  0.34384	  0.11720	  0.44101	 -0.00648	  0.64722	710.01001	 15.90	
 10.208	-104.249	  0.62137	  0.22793	  0.31238	  0.10633	  0.45715	 -0.00515	  0.64953	709.96002	 15.90	
 10.210	-94.801	  0.62187	  0.25945	  0.27995	  0.10272	  0.46336	 -0.00507	  0.65016	709.91998	 15.90	
 10.210	-85.199	  0.62324	  0.29236	  0.24731	  0.10400	  0.46209	 -0.00687	  0.65175	709.89001	 15.90	
 10.208	-75.751	  0.62075	  0.32276	  0.21734	  0.10721	  0.45606	 -0.00037	  0.64877	710.03003	 15.90	
 10.192	-66.322	  0.62167	  0.35556	  0.18858	  0.11613	  0.44346	 -0.00157	  0.64984	709.97998	 15.90	
 10.203	-56.908	  0.61853	  0.38252	  0.16429	  0.12962	  0.42525	  0.00225	  0.64481	709.92999	 15.90	
 10.215	-47.354	  0.62025	  0.41221	  0.14058	  0.14601	  0.40319	  0.00390	  0.64673	709.90002	 15.90	
 10.190	-37.895	  0.62531	  0.43863	  0.12406	  0.17036	  0.37884	  0.00651	  0.65124	709.89001	 15.90	
 10.194	-28.474	  0.62500	  0.45860	  0.10931	  0.19367	  0.35051	  0.00926	  0.65021	709.95001	 15.90	
 10.210	-18.966	  0.62958	  0.47582	  0.10102	  0.22403	  0.32221	  0.01240	  0.65410	710.01001	 15.90	
 10.191	 -9.503	  0.63011	  0.48286	  0.09409	  0.25460	  0.28850	  0.01682	  0.65468	709.96997	 15.90	
 10.200	  0.000	  0.62191	  0.48033	  0.09238	  0.28403	  0.25464	  0.01800	  0.64561	709.94000	 15.90	
 10.191	  9.503	  0.62084	  0.47721	  0.09422	  0.31707	  0.22319	  0.02159	  0.64580	709.88000	 15.90	
 10.210	 18.966	  0.62212	  0.46770	  0.10132	  0.35013	  0.19415	  0.02279	  0.64669	709.85999	 15.90	
 10.194	 28.474	  0.62620	  0.45523	  0.11334	  0.38329	  0.16876	  0.02665	  0.64984	709.96002	 15.90	
 10.190	 37.895	  0.62446	  0.43496	  0.12827	  0.41232	  0.14651	  0.03001	  0.64864	710.01001	 15.90	
 10.215	 47.354	  0.62384	  0.40833	  0.14739	  0.43816	  0.12558	  0.03151	  0.64671	709.91998	 15.90	
 10.203	 56.908	  0.62317	  0.38026	  0.17082	  0.46036	  0.10985	  0.03035	  0.64675	709.98999	 15.90	
 10.192	 66.322	  0.62202	  0.34846	  0.19801	  0.47602	  0.09908	  0.03220	  0.64352	709.90997	 15.90	
 10.208	 75.751	  0.62530	  0.31769	  0.22848	  0.49011	  0.09024	  0.03090	  0.64755	709.90002	 15.90	
 10.210	 85.199	  0.62808	  0.28794	  0.25944	  0.49914	  0.08573	  0.03001	  0.65200	709.95001	 15.90	
 10.210	 94.801	  0.62288	  0.25301	  0.28921	  0.49404	  0.08519	  0.02785	  0.64637	709.90997	 15.90	
 10.208	104.249	  0.62180	  0.22193	  0.32243	  0.48716	  0.08996	  0.02685	  0.64476	709.90997	 15.90	
 10.192	113.678	  0.62780	  0.19525	  0.35721	  0.47850	  0.09873	  0.02406	  0.65245	710.03003	 15.90	
 10.203	123.092	  0.62719	  0.16962	  0.38773	  0.46023	  0.11127	  0.02197	  0.65270	709.98999	 15.90	
 10.215	132.646	  0.62545	  0.14769	  0.41515	  0.43666	  0.12820	  0.01905	  0.65078	709.85999	 15.90	
 10.190	142.105	  0.62236	  0.12810	  0.43695	  0.40689	  0.14938	  0.01941	  0.64743	709.97998	 15.90	
 10.194	151.526	  0.62032	  0.11452	  0.45406	  0.37575	  0.17168	  0.01493	  0.64570	709.96997	 15.90	
 10.210	161.034	  0.62278	  0.10480	  0.46986	  0.34636	  0.19938	  0.01446	  0.64882	709.94000	 15.90	
 10.191	170.497	  0.62337	  0.09888	  0.47770	  0.31284	  0.22870	  0.01119	  0.64967	709.89001	 15.90	
 11.899	171.783	  0.61046	  0.06125	  0.50483	  0.30163	  0.21765	  0.00260	  0.64984	709.91998	 15.90	
 11.890	163.610	  0.61250	  0.06742	  0.49792	  0.33646	  0.18935	  0.00514	  0.65128	709.94000	 16.00	
 11.889	155.445	  0.60978	  0.07521	  0.48462	  0.36753	  0.16138	  0.00546	  0.64652	710.00000	 16.00	
 11.909	147.299	  0.60909	  0.08751	  0.46784	  0.39866	  0.13633	  0.00862	  0.64645	709.97998	 15.90	
 11.902	139.148	  0.61235	  0.10407	  0.44933	  0.42929	  0.11588	  0.00927	  0.64975	709.98999	 15.90	
 11.894	130.867	  0.61166	  0.12278	  0.42353	  0.45635	  0.09654	  0.01110	  0.64775	710.04999	 16.00	
 11.897	122.732	  0.61258	  0.14447	  0.39587	  0.47893	  0.08071	  0.01469	  0.64775	710.02002	 16.00	
 11.903	114.597	  0.61479	  0.16928	  0.36666	  0.49873	  0.06840	  0.01719	  0.65101	710.06000	 16.00	
 11.893	106.346	  0.61211	  0.19566	  0.33280	  0.51057	  0.05829	  0.01918	  0.64920	710.00000	 16.00	
 11.892	 98.155	  0.60978	  0.22664	  0.29855	  0.51743	  0.05354	  0.02035	  0.64412	709.96997	 16.00	
 11.900	 90.000	  0.61351	  0.25868	  0.26579	  0.52412	  0.04978	  0.02198	  0.64839	709.96997	 16.00	
 11.892	 81.845	  0.61187	  0.28975	  0.23518	  0.52042	  0.05220	  0.02290	  0.64701	710.03003	 16.00	
 11.893	 73.654	  0.61264	  0.32325	  0.20534	  0.51309	  0.05706	  0.02592	  0.64776	710.09998	 16.00	
 11.903	 65.403	  0.61406	  0.35561	  0.17562	  0.50061	  0.06590	  0.02472	  0.64788	709.96997	 16.00	
 11.897	 57.268	  0.61569	  0.38814	  0.14998	  0.48471	  0.07824	  0.02547	  0.64998	709.89001	 16.00	
 11.894	 49.133	  0.61716	  0.41757	  0.12699	  0.46493	  0.09212	  0.02485	  0.65149	710.01001	 16.00	
 11.902	 40.852	  0.61341	  0.44162	  0.10546	  0.43605	  0.11070	  0.02267	  0.64731	709.90002	 16.00	
 11.909	 32.701	  0.61702	  0.46585	  0.08993	  0.40866	  0.13294	  0.02128	  0.65214	709.90002	 16.00	
 11.889	 24.555	  0.61585	  0.48204	  0.07804	  0.37674	  0.15710	  0.01671	  0.65003	709.94000	 16.00	
 11.890	 16.390	  0.61083	  0.49212	  0.06766	  0.34316	  0.18231	  0.01640	  0.64460	710.04999	 16.00	
 11.899	  8.217	  0.61524	  0.50491	  0.06041	  0.31057	  0.21447	  0.01278	  0.65072	710.00000	 16.00	
 11.900	  0.000	  0.61257	  0.50680	  0.05895	  0.27684	  0.24360	  0.00966	  0.64788	709.96002	 16.00	
 11.899	 -8.217	  0.61350	  0.50452	  0.06100	  0.24525	  0.27649	  0.00770	  0.64836	709.98999	 16.00	
 11.890	-16.390	  0.61713	  0.50007	  0.06564	  0.21409	  0.31196	  0.00413	  0.65258	709.95001	 16.00	
 11.889	-24.555	  0.61047	  0.48361	  0.07244	  0.18266	  0.34025	  0.00045	  0.64548	709.95001	 16.00	
 11.909	-32.701	  0.60921	  0.46609	  0.08309	  0.15461	  0.37145	 -0.00293	  0.64627	709.95001	 16.00	
 11.902	-40.852	  0.60706	  0.44220	  0.09965	  0.13273	  0.39630	 -0.00609	  0.64315	709.94000	 16.00	
 11.894	-49.133	  0.61040	  0.42106	  0.11767	  0.11257	  0.42526	 -0.00566	  0.64818	709.95001	 16.00	
 11.897	-57.268	  0.61111	  0.39385	  0.13938	  0.09558	  0.44834	 -0.01090	  0.64891	710.04999	 16.00	
 11.903	-65.403	  0.60910	  0.36270	  0.16353	  0.08269	  0.46445	 -0.01316	  0.64890	709.95001	 16.00	
 11.893	-73.654	  0.60909	  0.33011	  0.19033	  0.07376	  0.47514	 -0.01399	  0.64798	709.98999	 16.00	
 11.892	-81.845	  0.60740	  0.29576	  0.22100	  0.06700	  0.48369	 -0.01467	  0.64647	709.97998	 16.00	
 11.900	-90.000	  0.60608	  0.26410	  0.25219	  0.06697	  0.48431	 -0.01343	  0.64565	710.03003	 16.00	
 11.892	-98.155	  0.60992	  0.23381	  0.28635	  0.06799	  0.48539	 -0.01610	  0.64929	710.08002	 16.00	
 11.893	-106.346	  0.60579	  0.20330	  0.31791	  0.07351	  0.47560	 -0.01345	  0.64513	710.09003	 16.00	
 11.903	-114.597	  0.60850	  0.17488	  0.35256	  0.08214	  0.46604	 -0.01247	  0.64783	710.03003	 16.00	
 11.897	-122.732	  0.60817	  0.14930	  0.38261	  0.09303	  0.45018	 -0.01573	  0.64977	710.00000	 16.00	
 11.894	-130.867	  0.60716	  0.12649	  0.41171	  0.10871	  0.42746	 -0.01216	  0.64698	709.96002	 16.00	
 11.902	-139.148	  0.60718	  0.10732	  0.43712	  0.12945	  0.40123	 -0.00970	  0.64581	709.95001	 16.00	
 11.909	-147.299	  0.60447	  0.08995	  0.45859	  0.15115	  0.37252	 -0.00562	  0.64366	709.98999	 16.00	
 11.889	-155.445	  0.61192	  0.07749	  0.48191	  0.17754	  0.34634	 -0.00692	  0.65129	709.97998	 16.00	
 11.890	-163.610	  0.60876	  0.06824	  0.49374	  0.20576	  0.31367	 -0.00493	  0.64688	710.00000	 16.00	
 11.899	-171.783	  0.60863	  0.06133	  0.50185	  0.23413	  0.28151	 -0.00119	  0.64703	710.03998	 16.00	
 11.900	180.000	  0.60818	  0.06184	  0.50366	  0.26861	  0.24833	 -0.00062	  0.64661	709.98999	 16.00	
 13.600	180.000	  0.59401	  0.02545	  0.52882	  0.25632	  0.23731	 -0.00864	  0.64606	710.08002	 16.00	
 13.608	-172.853	  0.59496	  0.02694	  0.52672	  0.22649	  0.26823	 -0.01454	  0.64814	710.15002	 16.00	
 13.611	-165.583	  0.59258	  0.03118	  0.51615	  0.19411	  0.29779	 -0.01633	  0.64650	710.04999	 16.10	
 13.601	-158.353	  0.59073	  0.03910	  0.50274	  0.16348	  0.33086	 -0.02124	  0.64437	709.96997	 16.00	
 13.609	-151.210	  0.59450	  0.05160	  0.48789	  0.13907	  0.36402	 -0.01972	  0.64734	710.02002	 16.10	
 13.611	-143.999	  0.59300	  0.06531	  0.46665	  0.11293	  0.39529	 -0.01617	  0.64742	710.02002	 16.10	
 13.601	-136.825	  0.59365	  0.08197	  0.44418	  0.09094	  0.42399	 -0.01800	  0.64871	710.02002	 16.10	
 13.596	-129.640	  0.59401	  0.10256	  0.41701	  0.07531	  0.44690	 -0.02083	  0.64896	710.03998	 16.10	
 13.611	-122.431	  0.59246	  0.12381	  0.38619	  0.05992	  0.46600	 -0.02300	  0.64665	710.03998	 16.10	
 13.604	-115.211	  0.59637	  0.14973	  0.35676	  0.04605	  0.48697	 -0.02523	  0.65174	710.07001	 16.10	
 13.595	-108.042	  0.59139	  0.17708	  0.32081	  0.03786	  0.49604	 -0.02398	  0.64529	710.08002	 16.10	
 13.607	-100.793	  0.59253	  0.20745	  0.28831	  0.03144	  0.50663	 -0.02253	  0.64809	709.96997	 16.10	
 13.601	-93.617	  0.59474	  0.23917	  0.25579	  0.02885	  0.51359	 -0.02245	  0.65031	709.98999	 16.10	
 13.601	-86.383	  0.59505	  0.27121	  0.22345	  0.02852	  0.51308	 -0.02090	  0.65078	710.00000	 16.10	
 13.607	-79.207	  0.59544	  0.30353	  0.19275	  0.03200	  0.50748	 -0.02419	  0.65016	710.08002	 16.10	
 13.595	-71.958	  0.59097	  0.33542	  0.16316	  0.03985	  0.49451	 -0.02219	  0.64543	710.03003	 16.10	
 13.604	-64.789	  0.59073	  0.36664	  0.13590	  0.04889	  0.47990	 -0.01868	  0.64430	710.03998	 16.10	
 13.611	-57.569	  0.59175	  0.39657	  0.11280	  0.06104	  0.46270	 -0.01904	  0.64488	710.07001	 16.10	
 13.596	-50.360	  0.59810	  0.42964	  0.09028	  0.07661	  0.44652	 -0.01852	  0.65079	710.09003	 16.10	
 13.601	-43.175	  0.59757	  0.45467	  0.07202	  0.09619	  0.42029	 -0.01600	  0.64973	710.04999	 16.10	
 13.611	-36.001	  0.59867	  0.47894	  0.05638	  0.11883	  0.39236	 -0.01104	  0.65097	710.13000	 16.10	
 13.609	-28.790	  0.59851	  0.49742	  0.04351	  0.14321	  0.36196	 -0.00804	  0.64979	710.01001	 16.10	
 13.601	-21.647	  0.59302	  0.50830	  0.03399	  0.16970	  0.32795	 -0.00690	  0.64366	710.04999	 16.10	
 13.611	-14.417	  0.59986	  0.52454	  0.02620	  0.20035	  0.30019	 -0.00306	  0.65140	710.07001	 16.10	
 13.608	 -7.147	  0.59714	  0.52809	  0.02164	  0.23176	  0.26460	 -0.00123	  0.64653	710.00000	 16.10	
 13.600	  0.000	  0.59702	  0.52878	  0.02260	  0.26303	  0.23366	  0.00139	  0.64658	709.97998	 16.10	
 13.608	  7.147	  0.59973	  0.52995	  0.02327	  0.29809	  0.20432	  0.00559	  0.65004	710.00000	 16.10	
 13.611	 14.417	  0.59880	  0.52062	  0.03024	  0.33179	  0.17373	  0.00857	  0.64684	710.01001	 16.10	
 13.601	 21.647	  0.59545	  0.50575	  0.03891	  0.36317	  0.14713	  0.00903	  0.64376	710.08002	 16.10	
 13.609	 28.790	  0.59907	  0.49316	  0.04888	  0.39648	  0.12099	  0.01465	  0.64821	710.00000	 16.10	
 13.611	 36.001	  0.59727	  0.47099	  0.06361	  0.42686	  0.09724	  0.01496	  0.64617	710.09003	 16.10	
 13.601	 43.175	  0.60234	  0.45056	  0.08141	  0.45810	  0.07782	  0.01604	  0.65086	710.22998	 16.10	
 13.596	 50.360	  0.59818	  0.41962	  0.10223	  0.47904	  0.06150	  0.01700	  0.64558	710.06000	 16.10	
 13.611	 57.569	  0.60318	  0.39418	  0.12662	  0.50512	  0.04711	  0.01515	  0.65152	710.15002	 16.10	
 13.604	 64.789	  0.59738	  0.35847	  0.15121	  0.51709	  0.03598	  0.01626	  0.64401	710.09003	 16.10	
 13.595	 71.958	  0.60050	  0.32870	  0.17973	  0.53259	  0.02756	  0.01650	  0.64766	710.09998	 16.10	
 13.607	 79.207	  0.60258	  0.29751	  0.21040	  0.54429	  0.02128	  0.01712	  0.65017	710.13000	 16.10	
 13.601	 86.383	  0.60317	  0.26420	  0.24105	  0.54891	  0.01807	  0.01397	  0.65116	710.03998	 16.10	
 13.601	 93.617	  0.60078	  0.23131	  0.27271	  0.54624	  0.01816	  0.01170	  0.64889	710.03003	 16.10	
 13.607	100.793	  0.59772	  0.20063	  0.30484	  0.53867	  0.02269	  0.01001	  0.64658	709.98999	 16.10	
 13.595	108.042	  0.59663	  0.17181	  0.33744	  0.52821	  0.02738	  0.00868	  0.64789	709.96997	 16.10	
 13.604	115.211	  0.59878	  0.14573	  0.37041	  0.51745	  0.03558	  0.00833	  0.64930	709.96997	 16.10	
 13.611	122.431	  0.59656	  0.11969	  0.40104	  0.49771	  0.04691	  0.00428	  0.64852	710.03998	 16.10	
 13.596	129.640	  0.59833	  0.09819	  0.43043	  0.47439	  0.06329	  0.00237	  0.64976	710.06000	 16.10	
 13.601	136.825	  0.59441	  0.07816	  0.45398	  0.44656	  0.08011	  0.00091	  0.64628	709.98999	 16.10	
 13.611	143.999	  0.59908	  0.06089	  0.47967	  0.42223	  0.09856	 -0.00101	  0.65201	709.97998	 16.10	
 13.609	151.210	  0.59540	  0.04813	  0.49758	  0.38810	  0.12406	 -0.00505	  0.64767	709.98999	 16.10	
 13.601	158.353	  0.59543	  0.03855	  0.51082	  0.35618	  0.15010	 -0.00599	  0.64702	710.09003	 16.10	
 13.611	165.583	  0.59466	  0.03099	  0.52235	  0.32405	  0.17690	 -0.00702	  0.64807	710.03998	 16.10	
 13.608	172.853	  0.59357	  0.02604	  0.52721	  0.28790	  0.20706	 -0.00840	  0.64726	710.04999	 16.10	
 15.298	173.587	  0.57754	 -0.00748	  0.55042	  0.27585	  0.19558	 -0.01657	  0.64867	710.10999	 16.10	
 15.291	167.167	  0.58312	 -0.00408	  0.54901	  0.31185	  0.16624	 -0.01523	  0.65355	710.03998	 16.10	
 15.307	160.676	  0.58105	  0.00243	  0.53917	  0.34409	  0.13816	 -0.01241	  0.65171	710.00000	 16.10	
 15.300	154.261	  0.57731	  0.01152	  0.52190	  0.37428	  0.11050	 -0.01262	  0.64654	710.03998	 16.10	
 15.288	147.854	  0.57791	  0.02344	  0.50335	  0.40681	  0.08633	 -0.01059	  0.64633	710.01001	 16.10	
 15.293	141.428	  0.57820	  0.03701	  0.48344	  0.43758	  0.06470	 -0.00859	  0.64659	710.01001	 16.10	
 15.299	134.985	  0.57875	  0.05483	  0.46055	  0.46478	  0.04738	 -0.00750	  0.64803	710.07001	 16.10	
 15.305	128.583	  0.57967	  0.07365	  0.43390	  0.49077	  0.03169	 -0.00665	  0.64692	710.07001	 16.10	
 15.309	122.142	  0.58087	  0.09426	  0.40579	  0.51538	  0.01483	 -0.00284	  0.64898	710.00000	 16.10	
 15.304	115.711	  0.58347	  0.11903	  0.37661	  0.53611	  0.00270	 -0.00128	  0.65131	710.12000	 16.10	
 15.297	109.291	  0.58196	  0.14471	  0.34354	  0.54937	 -0.00492	 -0.00006	  0.64979	710.04999	 16.20	
 15.293	102.897	  0.58216	  0.17263	  0.31077	  0.55917	 -0.00991	  0.00028	  0.64805	710.09003	 16.20	
 15.293	 96.458	  0.58289	  0.20246	  0.27772	  0.56571	 -0.01312	 -0.00052	  0.64696	710.04999	 16.20	
 15.300	 90.000	  0.58830	  0.23629	  0.24661	  0.57325	 -0.01586	  0.00229	  0.65404	710.09003	 16.20	
 15.293	 83.542	  0.58142	  0.26560	  0.21409	  0.56452	 -0.01219	  0.00727	  0.64481	710.10999	 16.20	
 15.293	 77.103	  0.58633	  0.30069	  0.18365	  0.56297	 -0.00953	  0.00908	  0.65088	710.16998	 16.20	
 15.297	 70.709	  0.58308	  0.33148	  0.15360	  0.55003	 -0.00230	  0.00680	  0.64660	710.08002	 16.20	
 15.304	 64.289	  0.58732	  0.36606	  0.12867	  0.54039	  0.00514	  0.00667	  0.65067	710.08002	 16.20	
 15.309	 57.858	  0.58375	  0.39519	  0.10255	  0.51967	  0.01678	  0.00611	  0.64814	710.06000	 16.20	
 15.305	 51.417	  0.58587	  0.42620	  0.08110	  0.49984	  0.03100	  0.00714	  0.65109	710.14001	 16.20	
 15.299	 45.015	  0.58398	  0.45398	  0.05693	  0.47449	  0.04532	  0.00515	  0.64854	710.03998	 16.20	
 15.293	 38.572	  0.58331	  0.47545	  0.04199	  0.44630	  0.06501	  0.00689	  0.64711	710.03998	 16.20	
 15.288	 32.146	  0.58674	  0.50177	  0.02458	  0.41981	  0.08499	  0.00545	  0.65192	709.94000	 16.20	
 15.300	 25.739	  0.58481	  0.51908	  0.01400	  0.38639	  0.10926	  0.00310	  0.64978	709.97998	 16.20	
 15.307	 19.324	  0.58534	  0.53342	  0.00220	  0.35447	  0.13229	  0.00181	  0.64925	710.03998	 16.20	
 15.291	 12.833	  0.58332	  0.54309	 -0.00225	  0.32098	  0.16234	 -0.00015	  0.64826	710.12000	 16.20	
 15.298	  6.413	  0.58598	  0.55174	 -0.00865	  0.28950	  0.18859	  0.00012	  0.65109	710.03003	 16.20	
 15.300	  0.000	  0.58245	  0.55275	 -0.01295	  0.25594	  0.21638	 -0.00164	  0.64864	709.98999	 16.20	
 15.298	 -6.413	  0.57890	  0.54787	 -0.01128	  0.22167	  0.24727	 -0.00543	  0.64460	709.96997	 16.20	
 15.291	-12.833	  0.58374	  0.54571	 -0.00712	  0.19206	  0.28264	 -0.00847	  0.64948	710.07001	 16.20	
 15.307	-19.324	  0.58183	  0.53528	 -0.00119	  0.16056	  0.31502	 -0.00867	  0.64715	710.12000	 16.20	
 15.300	-25.739	  0.58039	  0.52073	  0.00882	  0.13237	  0.34967	 -0.01393	  0.64626	710.15997	 16.20	
 15.288	-32.146	  0.57981	  0.50360	  0.01634	  0.10567	  0.37771	 -0.01947	  0.64593	710.06000	 16.20	
 15.293	-38.572	  0.57957	  0.48162	  0.03247	  0.08359	  0.40889	 -0.02129	  0.64680	709.94000	 16.20	
 15.299	-45.015	  0.57973	  0.45951	  0.04605	  0.06322	  0.43336	 -0.02247	  0.64847	710.08002	 16.20	
 15.305	-51.417	  0.57790	  0.43135	  0.06461	  0.04403	  0.45824	 -0.02611	  0.64615	710.15997	 16.20	
 15.309	-57.858	  0.57623	  0.40098	  0.08515	  0.02683	  0.47953	 -0.02994	  0.64607	710.10999	 16.20	
 15.304	-64.289	  0.58413	  0.37520	  0.11029	  0.01463	  0.50370	 -0.03010	  0.65468	709.96002	 16.20	
 15.297	-70.709	  0.57697	  0.33966	  0.13478	  0.00456	  0.51373	 -0.03008	  0.64750	710.07001	 16.20	
 15.293	-77.103	  0.57769	  0.30792	  0.16437	 -0.00086	  0.52535	 -0.03043	  0.64772	709.98999	 16.20	
 15.293	-83.542	  0.57675	  0.27460	  0.19482	 -0.00565	  0.53156	 -0.03327	  0.64749	709.91998	 16.20	
 15.300	-90.000	  0.57350	  0.24134	  0.22513	 -0.00690	  0.53204	 -0.03479	  0.64534	710.01001	 16.20	
 15.293	-96.458	  0.57448	  0.20978	  0.25873	 -0.00540	  0.53114	 -0.03296	  0.64663	709.97998	 16.20	
 15.293	-102.897	  0.57512	  0.17907	  0.29182	 -0.00326	  0.52580	 -0.03226	  0.64672	710.03998	 16.20	
 15.297	-109.291	  0.57540	  0.15064	  0.32523	  0.00458	  0.51578	 -0.03012	  0.64695	710.15002	 16.20	
 15.304	-115.711	  0.57727	  0.12360	  0.35986	  0.01384	  0.50217	 -0.03277	  0.64880	710.07001	 16.20	
 15.309	-122.142	  0.57534	  0.09892	  0.38926	  0.02603	  0.48240	 -0.03385	  0.64683	710.03003	 16.20	
 15.305	-128.583	  0.57915	  0.07721	  0.42244	  0.03991	  0.46610	 -0.02703	  0.65132	710.00000	 16.20	
 15.299	-134.985	  0.57914	  0.05734	  0.44961	  0.05730	  0.44192	 -0.02827	  0.65103	710.03998	 16.20	
 15.293	-141.428	  0.57968	  0.04060	  0.47557	  0.07805	  0.41454	 -0.02632	  0.65132	710.09998	 16.20	
 15.288	-147.854	  0.57831	  0.02537	  0.49596	  0.10008	  0.38491	 -0.02336	  0.64862	710.10999	 16.20	
 15.300	-154.261	  0.57522	  0.01443	  0.51136	  0.12455	  0.35170	 -0.02192	  0.64571	710.03998	 16.20	
 15.307	-160.676	  0.57635	  0.00366	  0.52819	  0.15082	  0.32168	 -0.02246	  0.64775	710.15002	 16.20	
 15.291	-167.167	  0.57602	 -0.00254	  0.53903	  0.18138	  0.28878	 -0.02181	  0.64760	710.15997	 16.20	
 15.298	-173.587	  0.57819	 -0.00712	  0.54758	  0.21169	  0.25723	 -0.02017	  0.64795	710.06000	 16.20	
 15.300	180.000	  0.58255	 -0.00848	  0.55420	  0.24534	  0.22794	 -0.01672	  0.65157	710.07001	 16.20	
 17.000	180.000	  0.55811	 -0.04085	  0.56944	  0.22800	  0.21308	 -0.02519	  0.64569	710.04999	 16.20	
 16.990	-174.179	  0.55937	 -0.04003	  0.56884	  0.19744	  0.24414	 -0.02749	  0.64918	710.08002	 16.20	
 17.009	-168.383	  0.55597	 -0.03475	  0.55812	  0.16622	  0.27577	 -0.02996	  0.64412	710.10999	 16.20	
 17.000	-162.596	  0.55779	 -0.02992	  0.54901	  0.13852	  0.30740	 -0.03078	  0.64592	710.00000	 16.20	
 16.990	-156.759	  0.55883	 -0.02193	  0.53693	  0.11168	  0.33968	 -0.03177	  0.64742	710.00000	 16.20	
 16.995	-150.919	  0.56070	 -0.01292	  0.52166	  0.08584	  0.37266	 -0.03592	  0.65033	710.01001	 16.20	
 16.988	-145.161	  0.56100	  0.00066	  0.50178	  0.06301	  0.40372	 -0.03475	  0.65098	710.07001	 16.20	
 17.014	-139.343	  0.55769	  0.01634	  0.47513	  0.04358	  0.42811	 -0.03779	  0.64616	710.04999	 16.20	
 17.007	-133.546	  0.55789	  0.03466	  0.44914	  0.02451	  0.45550	 -0.03597	  0.64783	710.02002	 16.20	
 17.001	-127.699	  0.55549	  0.05364	  0.41972	  0.00745	  0.47826	 -0.03802	  0.64621	710.04999	 16.20	
 17.006	-121.937	  0.55975	  0.07511	  0.39303	 -0.00735	  0.50233	 -0.03837	  0.65127	710.00000	 16.20	
 17.002	-116.134	  0.55896	  0.09911	  0.36011	 -0.01788	  0.51934	 -0.03913	  0.64950	710.09003	 16.20	
 17.001	-110.310	  0.55869	  0.12542	  0.32727	 -0.02750	  0.53379	 -0.03829	  0.64930	710.09003	 16.20	
 16.988	-104.517	  0.56031	  0.15327	  0.29479	 -0.03450	  0.54537	 -0.04329	  0.65039	710.03998	 16.20	
 17.008	-98.662	  0.56115	  0.18311	  0.26207	 -0.03922	  0.55332	 -0.04061	  0.65107	710.10999	 16.20	
 16.996	-92.909	  0.55892	  0.21274	  0.22862	 -0.04142	  0.55460	 -0.04080	  0.64965	710.00000	 16.20	
 16.996	-87.091	  0.55909	  0.24565	  0.19797	 -0.04104	  0.55521	 -0.04127	  0.64930	710.00000	 16.20	
 17.012	-81.253	  0.56124	  0.27808	  0.16774	 -0.03799	  0.55152	 -0.04008	  0.65038	710.00000	 16.20	
 16.988	-75.483	  0.56025	  0.31055	  0.13852	 -0.03208	  0.54209	 -0.03909	  0.64848	710.01001	 16.20	
 17.001	-69.690	  0.55496	  0.33925	  0.11029	 -0.02490	  0.52681	 -0.03750	  0.64368	710.12000	 16.20	
 17.002	-63.866	  0.55636	  0.37123	  0.08676	 -0.01440	  0.51131	 -0.03634	  0.64283	710.00000	 16.20	
 17.006	-58.063	  0.56157	  0.40490	  0.06208	 -0.00472	  0.49920	 -0.03757	  0.64928	710.04999	 16.20	
 17.001	-52.301	  0.55946	  0.43228	  0.04264	  0.01077	  0.47458	 -0.03677	  0.64594	710.04999	 16.20	
 17.007	-46.454	  0.56142	  0.45997	  0.02459	  0.02874	  0.45054	 -0.03330	  0.64759	710.06000	 16.20	
 17.014	-40.657	  0.56397	  0.48842	  0.00624	  0.04855	  0.42484	 -0.03437	  0.64897	709.96997	 16.20	
 16.988	-34.839	  0.56465	  0.50965	 -0.00796	  0.06831	  0.39701	 -0.03405	  0.65018	710.01001	 16.20	
 16.995	-29.081	  0.55956	  0.52412	 -0.01800	  0.09464	  0.36123	 -0.03055	  0.64283	710.00000	 16.20	
 16.990	-23.241	  0.56129	  0.54038	 -0.02699	  0.12028	  0.33192	 -0.02743	  0.64435	709.94000	 16.20	
 17.000	-17.404	  0.56523	  0.55733	 -0.03620	  0.14836	  0.30314	 -0.02631	  0.64960	710.03998	 16.20	
 17.009	-11.617	  0.56309	  0.56379	 -0.04047	  0.17772	  0.26924	 -0.02212	  0.64652	710.04999	 16.20	
 16.990	 -5.821	  0.56231	  0.56914	 -0.04356	  0.20824	  0.23694	 -0.01911	  0.64639	710.03003	 16.20	
 17.000	  0.000	  0.56049	  0.56696	 -0.04142	  0.24057	  0.20581	 -0.01640	  0.64327	710.09003	 16.20	
 16.990	  5.821	  0.56579	  0.56814	 -0.03976	  0.27240	  0.17856	 -0.01404	  0.64749	710.06000	 16.20	
 17.009	 11.617	  0.56502	  0.56128	 -0.03445	  0.30811	  0.14719	 -0.01301	  0.64619	709.97998	 16.20	
 17.000	 17.404	  0.56394	  0.55032	 -0.02735	  0.33898	  0.12208	 -0.01080	  0.64553	710.12000	 16.20	
 16.990	 23.241	  0.56339	  0.53769	 -0.02079	  0.37237	  0.09469	 -0.00957	  0.64603	710.00000	 16.20	
 16.995	 29.081	  0.56583	  0.52212	 -0.00957	  0.40476	  0.07088	 -0.00670	  0.64798	710.09998	 16.20	
 16.988	 34.839	  0.56546	  0.50210	  0.00406	  0.43397	  0.05170	 -0.00629	  0.64746	709.96002	 16.20	
 17.014	 40.657	  0.56305	  0.47838	  0.01913	  0.46124	  0.03241	 -0.00145	  0.64444	710.00000	 16.20	
 17.007	 46.454	  0.55952	  0.45059	  0.03667	  0.48571	  0.01583	 -0.00150	  0.64086	710.06000	 16.20	
 17.001	 52.301	  0.56683	  0.42715	  0.05787	  0.51414	 -0.00015	 -0.00346	  0.64893	710.00000	 16.20	
 17.006	 58.063	  0.56482	  0.39599	  0.07952	  0.53308	 -0.01145	 -0.00336	  0.64639	710.03003	 16.20	
 17.002	 63.866	  0.56232	  0.36240	  0.10362	  0.54875	 -0.02296	  0.00155	  0.64358	709.98999	 16.20	
 17.001	 69.690	  0.56315	  0.33245	  0.12876	  0.56287	 -0.03075	 -0.00007	  0.64342	709.97998	 16.20	
 16.988	 75.483	  0.56628	  0.30242	  0.15664	  0.57569	 -0.03732	 -0.00302	  0.64665	710.14001	 16.20	
 17.012	 81.253	  0.56583	  0.27031	  0.18547	  0.58669	 -0.04540	 -0.00327	  0.65026	710.09003	 16.20	
 16.996	 87.091	  0.56465	  0.23588	  0.21483	  0.58963	 -0.04926	 -0.00763	  0.64916	709.94000	 16.20	
 16.996	 92.909	  0.56587	  0.20539	  0.24634	  0.59008	 -0.05006	 -0.00779	  0.65052	710.02002	 16.20	
 17.008	 98.662	  0.56598	  0.17566	  0.28076	  0.58514	 -0.04488	 -0.00629	  0.65190	709.98999	 16.20	
 16.988	104.517	  0.56127	  0.14561	  0.31163	  0.57311	 -0.03976	 -0.00989	  0.64623	710.09998	 16.20	
 17.001	110.310	  0.56160	  0.11851	  0.34425	  0.56204	 -0.03315	 -0.01077	  0.64699	710.08002	 16.20	
 17.002	116.134	  0.55740	  0.09443	  0.37224	  0.54278	 -0.02520	 -0.01345	  0.64275	710.08002	 16.20	
 17.006	121.937	  0.56100	  0.07195	  0.40526	  0.52759	 -0.01266	 -0.01386	  0.64633	710.07001	 16.20	
 17.001	127.699	  0.55905	  0.05006	  0.43484	  0.50498	 -0.00082	 -0.01564	  0.64617	710.02002	 16.20	
 17.007	133.546	  0.55802	  0.02912	  0.46059	  0.47885	  0.01490	 -0.01854	  0.64501	710.04999	 16.20	
 17.014	139.343	  0.55962	  0.01375	  0.48654	  0.45305	  0.03168	 -0.01905	  0.64741	710.04999	 16.20	
 16.988	145.161	  0.56035	  0.00009	  0.50907	  0.42371	  0.05346	 -0.02122	  0.64763	709.98999	 16.20	
 16.995	150.919	  0.56259	 -0.01312	  0.53063	  0.39372	  0.07522	 -0.02224	  0.65114	710.02002	 16.20	
 16.990	156.759	  0.55789	 -0.02115	  0.54089	  0.36040	  0.09866	 -0.02239	  0.64568	709.98999	 16.20	
 17.000	162.596	  0.55827	 -0.03002	  0.55404	  0.32677	  0.12510	 -0.02651	  0.64627	710.03003	 16.20	
 17.009	168.383	  0.55545	 -0.03582	  0.56015	  0.29398	  0.15144	 -0.02448	  0.64366	709.96997	 16.20	
 16.990	174.179	  0.55993	 -0.03854	  0.56750	  0.26187	  0.18273	 -0.02934	  0.64725	710.01001	 16.20	
 18.709	174.675	  0.54312	 -0.07389	  0.59110	  0.24732	  0.16870	 -0.03737	  0.65234	709.97998	 16.20	
 18.703	169.441	  0.53924	 -0.07046	  0.58334	  0.27785	  0.13938	 -0.03682	  0.64821	710.00000	 16.30	
 18.691	164.085	  0.53758	 -0.06331	  0.57253	  0.31026	  0.11224	 -0.03433	  0.64414	709.98999	 16.30	
 18.706	158.818	  0.53360	 -0.05617	  0.55809	  0.34101	  0.08527	 -0.03144	  0.64084	710.08002	 16.30	
 18.695	153.537	  0.53831	 -0.04887	  0.54802	  0.37570	  0.06167	 -0.03284	  0.64660	710.09003	 16.30	
 18.704	148.255	  0.54289	 -0.04037	  0.53683	  0.40991	  0.03789	 -0.03063	  0.65265	710.01001	 16.20	
 18.698	142.952	  0.53500	 -0.02460	  0.50773	  0.43541	  0.02079	 -0.02801	  0.64274	709.97998	 16.20	
 18.699	137.625	  0.54046	 -0.01102	  0.49056	  0.46849	  0.00187	 -0.02840	  0.65016	710.03003	 16.30	
 18.705	132.343	  0.54042	  0.00595	  0.46418	  0.49429	 -0.01447	 -0.02454	  0.64798	710.10999	 16.30	
 18.713	127.067	  0.54372	  0.02529	  0.43878	  0.52083	 -0.03018	 -0.02710	  0.65209	710.01001	 16.30	
 18.700	121.794	  0.54146	  0.04657	  0.40729	  0.53961	 -0.04073	 -0.02426	  0.64742	710.02002	 16.30	
 18.698	116.504	  0.54067	  0.06836	  0.37671	  0.55879	 -0.05207	 -0.02185	  0.64655	710.03998	 16.30	
 18.707	111.165	  0.54165	  0.09292	  0.34474	  0.57475	 -0.05958	 -0.01903	  0.64747	709.98999	 16.30	
 18.690	105.863	  0.54340	  0.11946	  0.31396	  0.58758	 -0.06653	 -0.01485	  0.64812	710.00000	 16.30	
 18.696	100.583	  0.54472	  0.14744	  0.28249	  0.59806	 -0.07073	 -0.01316	  0.64835	710.08002	 16.30	
 18.700	 95.309	  0.54340	  0.17626	  0.24933	  0.60244	 -0.07437	 -0.01531	  0.64711	709.98999	 16.30	
 18.700	 90.000	  0.54498	  0.20630	  0.21711	  0.60593	 -0.07595	 -0.01743	  0.64794	709.95001	 16.30	
 18.700	 84.691	  0.54209	  0.23549	  0.18636	  0.60145	 -0.07442	 -0.01424	  0.64349	709.96002	 16.30	
 18.696	 79.417	  0.54392	  0.26856	  0.15760	  0.59917	 -0.07156	 -0.01079	  0.64803	709.97998	 16.30	
 18.690	 74.137	  0.54581	  0.30018	  0.12937	  0.59359	 -0.06856	 -0.01022	  0.64840	710.03998	 16.30	
 18.707	 68.835	  0.54077	  0.33015	  0.10114	  0.57741	 -0.06102	 -0.00966	  0.64275	709.95001	 16.30	
 18.698	 63.496	  0.54611	  0.36541	  0.07668	  0.56810	 -0.05462	 -0.01036	  0.65001	709.92999	 16.30	
 18.700	 58.206	  0.54458	  0.39525	  0.05260	  0.54857	 -0.04402	 -0.01176	  0.64695	709.95001	 16.30	
 18.713	 52.933	  0.54467	  0.42425	  0.03189	  0.52843	 -0.03208	 -0.01308	  0.64668	709.96997	 16.30	
 18.705	 47.657	  0.54394	  0.45262	  0.01150	  0.50394	 -0.01784	 -0.01267	  0.64672	709.96002	 16.30	
 18.699	 42.375	  0.54461	  0.47940	 -0.00619	  0.47890	 -0.00153	 -0.01290	  0.64701	710.03998	 16.30	
 18.698	 37.048	  0.54385	  0.50305	 -0.02131	  0.45072	  0.01705	 -0.01315	  0.64698	710.02002	 16.30	
 18.704	 31.745	  0.54232	  0.52276	 -0.03549	  0.41759	  0.03715	 -0.01455	  0.64361	709.95001	 16.30	
 18.695	 26.463	  0.54498	  0.54511	 -0.04849	  0.39087	  0.05756	 -0.01649	  0.64899	709.90002	 16.30	
 18.706	 21.182	  0.54354	  0.55838	 -0.05722	  0.35628	  0.08260	 -0.01867	  0.64636	709.85999	 16.30	
 18.691	 15.915	  0.54453	  0.57164	 -0.06486	  0.32440	  0.10912	 -0.01916	  0.64814	710.00000	 16.30	
 18.703	 10.559	  0.54257	  0.57912	 -0.07042	  0.29059	  0.13562	 -0.01985	  0.64630	709.87000	 16.30	
 18.709	  5.325	  0.54412	  0.58621	 -0.07448	  0.25779	  0.16514	 -0.02076	  0.64750	709.92999	 16.30	
 18.700	  0.000	  0.54751	  0.59325	 -0.07744	  0.22713	  0.19593	 -0.02411	  0.65276	710.01001	 16.30	
 18.709	 -5.325	  0.54713	  0.58976	 -0.07534	  0.19442	  0.22788	 -0.02532	  0.65100	709.92999	 16.30	
 18.703	-10.559	  0.54158	  0.58105	 -0.07268	  0.16314	  0.25607	 -0.02949	  0.64637	709.90997	 16.30	
 18.691	-15.915	  0.54431	  0.57549	 -0.06920	  0.13448	  0.28768	 -0.03241	  0.64751	709.94000	 16.30	
 18.706	-21.182	  0.54578	  0.56457	 -0.06149	  0.10753	  0.32162	 -0.03637	  0.64982	709.96002	 16.30	
 18.695	-26.463	  0.54783	  0.55370	 -0.05581	  0.08173	  0.35351	 -0.03688	  0.65299	709.95001	 16.30	
 18.704	-31.745	  0.54476	  0.53363	 -0.04400	  0.05706	  0.38293	 -0.03927	  0.64937	709.92999	 16.30	
 18.698	-37.048	  0.53888	  0.50727	 -0.03044	  0.03481	  0.40982	 -0.04194	  0.64343	710.02002	 16.30	
 18.699	-42.375	  0.54007	  0.48621	 -0.01864	  0.01485	  0.43676	 -0.04468	  0.64490	710.03003	 16.30	
 18.705	-47.657	  0.53991	  0.46161	 -0.00192	 -0.00283	  0.46268	 -0.04558	  0.64585	710.09003	 16.30	
 18.713	-52.933	  0.54210	  0.43515	  0.01730	 -0.01981	  0.49010	 -0.04442	  0.64878	710.03003	 16.30	
 18.700	-58.206	  0.54017	  0.40557	  0.03819	 -0.03158	  0.51024	 -0.04539	  0.64693	709.91998	 16.30	
 18.698	-63.496	  0.54145	  0.37608	  0.05994	 -0.04483	  0.52965	 -0.04492	  0.64982	710.03003	 16.30	
 18.707	-68.835	  0.53380	  0.34045	  0.08456	 -0.05330	  0.54082	 -0.04670	  0.64213	709.90002	 16.30	
 18.690	-74.137	  0.54111	  0.31150	  0.11144	 -0.06146	  0.55902	 -0.04754	  0.65067	709.90997	 16.30	
 18.696	-79.417	  0.53974	  0.28005	  0.13938	 -0.06686	  0.56627	 -0.04517	  0.64999	709.91998	 16.30	
 18.700	-84.691	  0.53782	  0.24600	  0.16822	 -0.07102	  0.57100	 -0.04496	  0.64692	709.85999	 16.30	
 18.700	-90.000	  0.53831	  0.21485	  0.19846	 -0.07293	  0.57502	 -0.04635	  0.64947	709.84998	 16.30	
 18.700	-95.309	  0.53213	  0.18294	  0.22830	 -0.07048	  0.56855	 -0.04605	  0.64274	709.84003	 16.30	
 18.696	-100.583	  0.53582	  0.15494	  0.26146	 -0.06803	  0.56629	 -0.04615	  0.64655	709.87000	 16.30	
 18.690	-105.863	  0.53621	  0.12664	  0.29466	 -0.06267	  0.55828	 -0.04331	  0.64669	709.85999	 16.30	
 18.707	-111.165	  0.53936	  0.09920	  0.32821	 -0.05817	  0.55097	 -0.04379	  0.65091	709.81000	 16.30	
 18.698	-116.504	  0.53721	  0.07328	  0.36043	 -0.04702	  0.53312	 -0.04170	  0.64804	709.91998	 16.30	
 18.700	-121.794	  0.53785	  0.05020	  0.39189	 -0.03619	  0.51623	 -0.04111	  0.64899	710.01001	 16.30	
 18.713	-127.067	  0.53929	  0.02865	  0.42195	 -0.02381	  0.49657	 -0.04467	  0.65050	709.89001	 16.30	
 18.705	-132.343	  0.53746	  0.00729	  0.45092	 -0.01070	  0.47174	 -0.04530	  0.64829	709.96002	 16.30	
 18.699	-137.625	  0.54119	 -0.00838	  0.48114	  0.00875	  0.44784	 -0.04502	  0.65264	709.90002	 16.30	
 18.698	-142.952	  0.53589	 -0.02478	  0.49984	  0.02753	  0.41516	 -0.04662	  0.64635	709.84998	 16.30	
 18.704	-148.255	  0.54300	 -0.03747	  0.52719	  0.05063	  0.39023	 -0.04505	  0.65297	709.87000	 16.30	
 18.695	-153.537	  0.54020	 -0.04867	  0.54210	  0.07340	  0.35603	 -0.04121	  0.64946	709.92999	 16.30	
 18.706	-158.818	  0.53860	 -0.05720	  0.55789	  0.09857	  0.32575	 -0.04333	  0.64867	710.03998	 16.30	
 18.691	-164.085	  0.53678	 -0.06377	  0.56949	  0.12380	  0.29506	 -0.04158	  0.64653	710.03998	 16.30	
 18.703	-169.441	  0.53610	 -0.06774	  0.57735	  0.15315	  0.26301	 -0.04318	  0.64631	710.00000	 16.30	
 18.709	-174.675	  0.54035	 -0.07506	  0.58857	  0.18359	  0.23002	 -0.03616	  0.65149	709.96002	 16.30	
 18.700	180.000	  0.53609	 -0.07417	  0.58559	  0.21250	  0.19917	 -0.04233	  0.64497	710.00000	 16.30	
 20.400	180.000	  0.51382	 -0.10996	  0.60282	  0.19422	  0.18176	 -0.04682	  0.64826	710.01001	 16.30	
 20.401	-175.153	  0.51201	 -0.10797	  0.59810	  0.16410	  0.21237	 -0.04988	  0.64479	709.91998	 16.30	
 20.407	-170.264	  0.50839	 -0.10355	  0.58727	  0.13316	  0.24250	 -0.04541	  0.64082	709.89001	 16.30	
 20.410	-165.423	  0.51331	 -0.10187	  0.58527	  0.10576	  0.27475	 -0.04650	  0.64660	709.95001	 16.30	
 20.392	-160.496	  0.51200	 -0.09388	  0.57222	  0.07768	  0.30733	 -0.04498	  0.64514	709.91998	 16.30	
 20.401	-155.705	  0.51078	 -0.08710	  0.55658	  0.05188	  0.33829	 -0.04666	  0.64418	709.91998	 16.30	
 20.405	-150.835	  0.51607	 -0.07860	  0.54522	  0.03010	  0.37149	 -0.05237	  0.65050	709.94000	 16.30	
 20.397	-145.903	  0.51487	 -0.06479	  0.52252	  0.00745	  0.40165	 -0.04608	  0.64884	709.90002	 16.30	
 20.392	-141.062	  0.51526	 -0.05180	  0.50026	 -0.01212	  0.43080	 -0.04982	  0.64927	709.97998	 16.30	
 20.396	-136.227	  0.51286	 -0.03551	  0.47363	 -0.02935	  0.45628	 -0.05099	  0.64585	710.03998	 16.30	
 20.408	-131.372	  0.51434	 -0.01792	  0.44714	 -0.04468	  0.48237	 -0.05071	  0.64874	709.97998	 16.30	
 20.410	-126.511	  0.51139	  0.00126	  0.41718	 -0.05861	  0.50238	 -0.04888	  0.64487	710.03003	 16.30	
 20.400	-121.604	  0.51843	  0.02242	  0.39117	 -0.07278	  0.53064	 -0.04809	  0.65291	710.03003	 16.30	
 20.403	-116.741	  0.51256	  0.04484	  0.35667	 -0.08262	  0.54309	 -0.04761	  0.64670	710.00000	 16.30	
 20.413	-111.900	  0.50980	  0.07034	  0.32289	 -0.08793	  0.55492	 -0.05023	  0.64290	710.03003	 16.30	
 20.398	-107.004	  0.51536	  0.09668	  0.29170	 -0.09781	  0.57201	 -0.04589	  0.64915	709.96997	 16.30	
 20.394	-102.132	  0.51392	  0.12446	  0.25827	 -0.10208	  0.58038	 -0.04833	  0.64794	710.08002	 16.30	
 20.403	-97.332	  0.51448	  0.15329	  0.22746	 -0.10425	  0.58628	 -0.04891	  0.64817	710.02002	 16.30	
 20.392	-92.440	  0.51374	  0.18297	  0.19592	 -0.10542	  0.58810	 -0.04884	  0.64672	709.95001	 16.30	
 20.392	-87.560	  0.51582	  0.21534	  0.16608	 -0.10664	  0.59004	 -0.04914	  0.65004	709.96997	 16.30	
 20.403	-82.668	  0.51312	  0.24630	  0.13505	 -0.10455	  0.58406	 -0.04949	  0.64758	709.87000	 16.30	
 20.394	-77.868	  0.50993	  0.27519	  0.10573	 -0.09923	  0.57282	 -0.05265	  0.64188	709.88000	 16.30	
 20.398	-72.996	  0.51426	  0.30865	  0.07882	 -0.09580	  0.56820	 -0.05309	  0.64715	709.88000	 16.30	
 20.413	-68.100	  0.51210	  0.34013	  0.05454	 -0.08831	  0.55342	 -0.04717	  0.64422	710.01001	 16.30	
 20.403	-63.259	  0.51817	  0.37436	  0.03058	 -0.07996	  0.54284	 -0.04866	  0.64991	709.96997	 16.30	
 20.400	-58.396	  0.52019	  0.40691	  0.00799	 -0.07008	  0.52608	 -0.04903	  0.65351	709.84998	 16.30	
 20.410	-53.489	  0.51535	  0.43117	 -0.01082	 -0.05432	  0.49912	 -0.04881	  0.64474	709.95001	 16.30	
 20.408	-48.628	  0.51597	  0.46020	 -0.03050	 -0.04123	  0.47611	 -0.04904	  0.64543	710.00000	 16.30	
 20.396	-43.773	  0.51797	  0.48737	 -0.04628	 -0.02521	  0.45246	 -0.04953	  0.64805	710.03003	 16.30	
 20.392	-38.938	  0.51890	  0.51189	 -0.06102	 -0.00489	  0.42559	 -0.04691	  0.64856	710.04999	 16.30	
 20.397	-34.097	  0.51831	  0.53298	 -0.07352	  0.01574	  0.39554	 -0.04863	  0.64740	710.09003	 16.30	
 20.405	-29.165	  0.52022	  0.55219	 -0.08349	  0.03793	  0.36622	 -0.04613	  0.64822	710.03998	 16.30	
 20.401	-24.295	  0.52259	  0.57107	 -0.09367	  0.06226	  0.33598	 -0.04238	  0.65184	710.09003	 16.30	
 20.392	-19.504	  0.51980	  0.58096	 -0.10016	  0.08815	  0.30218	 -0.03987	  0.64771	710.06000	 16.40	
 20.410	-14.577	  0.52229	  0.59397	 -0.10609	  0.11766	  0.27101	 -0.03803	  0.65007	710.07001	 16.30	
 20.407	 -9.736	  0.52078	  0.59838	 -0.10970	  0.14522	  0.23872	 -0.03370	  0.64820	710.03003	 16.40	
 20.401	 -4.847	  0.52164	  0.60403	 -0.11289	  0.17582	  0.20748	 -0.03321	  0.65019	710.14001	 16.40	
 20.400	  0.000	  0.52425	  0.60726	 -0.11311	  0.20890	  0.17663	 -0.03393	  0.65294	710.04999	 16.30	
 20.401	  4.847	  0.51833	  0.59925	 -0.10962	  0.23985	  0.14646	 -0.03485	  0.64466	710.04999	 16.30	
 20.407	  9.736	  0.52379	  0.59826	 -0.10668	  0.27373	  0.11798	 -0.03245	  0.64987	710.03003	 16.30	
 20.410	 14.577	  0.52000	  0.58641	 -0.10040	  0.30460	  0.09101	 -0.02983	  0.64592	710.10999	 16.30	
 20.392	 19.504	  0.52192	  0.57658	 -0.09379	  0.33969	  0.06322	 -0.02877	  0.64711	710.01001	 16.40	
 20.401	 24.295	  0.52479	  0.56452	 -0.08615	  0.37335	  0.03969	 -0.02687	  0.65106	709.96997	 16.30	
 20.405	 29.165	  0.51760	  0.54031	 -0.07563	  0.40066	  0.01631	 -0.02664	  0.64302	710.03003	 16.30	
 20.397	 34.097	  0.51825	  0.52051	 -0.06410	  0.43318	 -0.00593	 -0.02459	  0.64345	710.02002	 16.30	
 20.392	 38.938	  0.52120	  0.50078	 -0.04976	  0.46420	 -0.02404	 -0.02335	  0.64798	709.95001	 16.30	
 20.396	 43.773	  0.51882	  0.47402	 -0.03455	  0.48933	 -0.04207	 -0.02177	  0.64440	709.98999	 16.30	
 20.408	 48.628	  0.52282	  0.45286	 -0.01672	  0.51870	 -0.05499	 -0.02034	  0.65003	709.89001	 16.40	
 20.410	 53.489	  0.52258	  0.42354	  0.00287	  0.54220	 -0.06950	 -0.02042	  0.65168	709.96002	 16.30	
 20.400	 58.396	  0.52108	  0.38994	  0.02179	  0.56173	 -0.08363	 -0.02337	  0.64934	709.97998	 16.40	
 20.403	 63.259	  0.52116	  0.35938	  0.04730	  0.57968	 -0.09094	 -0.02130	  0.64864	709.92999	 16.40	
 20.413	 68.100	  0.51903	  0.32610	  0.07214	  0.59058	 -0.09730	 -0.02090	  0.64620	709.94000	 16.40	
 20.398	 72.996	  0.52697	  0.29853	  0.09925	  0.61000	 -0.10506	 -0.02028	  0.65361	709.92999	 16.40	
 20.394	 77.868	  0.51992	  0.26391	  0.12583	  0.60999	 -0.10506	 -0.01705	  0.64537	709.84003	 16.40	
 20.403	 82.668	  0.51944	  0.23074	  0.15564	  0.61473	 -0.10980	 -0.01731	  0.64626	709.88000	 16.40	
 20.392	 87.560	  0.52013	  0.20110	  0.18526	  0.61757	 -0.10951	 -0.02175	  0.64539	709.87000	 16.40	
 20.392	 92.440	  0.51849	  0.17071	  0.21638	  0.61594	 -0.11007	 -0.02276	  0.64432	709.89001	 16.40	
 20.403	 97.332	  0.52619	  0.14319	  0.25163	  0.62224	 -0.10955	 -0.02454	  0.65515	709.96002	 16.30	
 20.394	102.132	  0.52117	  0.11305	  0.28095	  0.60956	 -0.10629	 -0.02949	  0.64932	709.96002	 16.40	
 20.398	107.004	  0.51855	  0.08656	  0.31250	  0.59846	 -0.10161	 -0.02660	  0.64761	709.81000	 16.40	
 20.413	111.900	  0.51897	  0.06023	  0.34488	  0.58683	 -0.09682	 -0.02922	  0.64940	709.82001	 16.40	
 20.403	116.741	  0.51367	  0.03683	  0.37316	  0.56585	 -0.08659	 -0.03168	  0.64236	709.85999	 16.40	
 20.400	121.604	  0.51366	  0.01506	  0.40175	  0.54580	 -0.07660	 -0.03051	  0.64204	709.87000	 16.40	
 20.410	126.511	  0.51753	 -0.00589	  0.43577	  0.52889	 -0.06600	 -0.03291	  0.64814	709.89001	 16.30	
 20.408	131.372	  0.51390	 -0.02275	  0.46033	  0.49991	 -0.04870	 -0.03639	  0.64120	709.85999	 16.30	
 20.396	136.227	  0.51399	 -0.03970	  0.48700	  0.47601	 -0.03509	 -0.03538	  0.64500	709.87000	 16.40	
 20.392	141.062	  0.51747	 -0.05623	  0.51286	  0.45308	 -0.02192	 -0.03526	  0.65154	709.84998	 16.40	
 20.397	145.903	  0.51494	 -0.07111	  0.53429	  0.42239	 -0.00390	 -0.03834	  0.64911	709.77002	 16.40	
 20.405	150.835	  0.51461	 -0.07980	  0.55140	  0.38917	  0.01996	 -0.03737	  0.64689	709.81000	 16.40	
 20.401	155.705	  0.51584	 -0.09111	  0.56956	  0.35897	  0.04173	 -0.03812	  0.64965	709.82001	 16.40	
 20.392	160.496	  0.51339	 -0.09728	  0.58001	  0.32407	  0.06760	 -0.04075	  0.64662	709.84998	 16.40	
 20.410	165.423	  0.51548	 -0.10513	  0.59381	  0.29195	  0.09384	 -0.04066	  0.65070	709.84998	 16.40	
 20.407	170.264	  0.51256	 -0.10747	  0.59597	  0.25797	  0.12157	 -0.04015	  0.64469	709.84998	 16.40	
 20.401	175.153	  0.51412	 -0.10848	  0.60001	  0.22708	  0.15048	 -0.04271	  0.64594	709.84998	 16.40	
  0.141	 45.000	  0.64832	  0.30136	  0.29423	  0.31542	  0.28404	  0.04151	  0.64792	709.79999	 16.40	
  4.001	128.691	  0.64548	  0.24835	  0.34099	  0.36768	  0.22600	  0.03907	  0.64882	709.84003	 16.40	
  4.002	 76.995	  0.64607	  0.30867	  0.27625	  0.38474	  0.21256	  0.04265	  0.64756	709.85999	 16.40	
  4.002	 25.892	  0.65125	  0.36809	  0.22963	  0.34382	  0.25015	  0.04363	  0.65293	710.01001	 16.40	
  4.002	-25.892	  0.64545	  0.36581	  0.22816	  0.27554	  0.31264	  0.03720	  0.64834	709.84998	 16.40	
  4.002	-76.995	  0.63805	  0.30959	  0.27286	  0.23641	  0.35105	  0.03082	  0.64131	709.87000	 16.40	
  4.001	-128.691	  0.64571	  0.25221	  0.33913	  0.24867	  0.34071	  0.03165	  0.64892	709.91998	 16.40	
  4.000	180.000	  0.65040	  0.22620	  0.37270	  0.30554	  0.28363	  0.03342	  0.65238	709.97998	 16.40	
  8.000	180.000	  0.63255	  0.14316	  0.44258	  0.29036	  0.26963	  0.01807	  0.64772	709.95001	 16.40	
  7.991	-152.370	  0.63349	  0.15958	  0.42184	  0.22150	  0.34131	  0.01242	  0.64854	709.92999	 16.40	
  7.997	-124.550	  0.62886	  0.20231	  0.36435	  0.17137	  0.39815	  0.00885	  0.64411	709.89001	 16.40	
  8.006	-96.837	  0.63051	  0.26594	  0.29357	  0.15042	  0.42620	  0.00951	  0.64633	709.92999	 16.40	
  7.988	-69.228	  0.64000	  0.34262	  0.22464	  0.16042	  0.42136	  0.01265	  0.65516	709.96002	 16.40	
  7.997	-41.563	  0.63324	  0.40403	  0.16970	  0.19710	  0.37144	  0.01738	  0.64802	709.90002	 16.40	
  8.008	-13.821	  0.63400	  0.44131	  0.14219	  0.25835	  0.30374	  0.02403	  0.64896	709.98999	 16.40	
  8.008	 13.821	  0.64044	  0.44361	  0.14366	  0.33498	  0.23395	  0.03289	  0.65414	709.91998	 16.40	
  7.997	 41.563	  0.63456	  0.40020	  0.17373	  0.40245	  0.17295	  0.03730	  0.64804	709.88000	 16.40	
  7.988	 69.228	  0.63190	  0.33323	  0.22782	  0.44684	  0.13851	  0.03742	  0.64389	709.83002	 16.40	
  8.006	 96.837	  0.63454	  0.26154	  0.30083	  0.45739	  0.13238	  0.03540	  0.64851	709.98999	 16.40	
  7.997	124.550	  0.63279	  0.19742	  0.37133	  0.42625	  0.15352	  0.02925	  0.64630	709.78998	 16.40	
  7.991	152.370	  0.63123	  0.15569	  0.42402	  0.36400	  0.20149	  0.02493	  0.64566	709.85999	 16.40	
 12.009	161.059	  0.61315	  0.06731	  0.49878	  0.34845	  0.18006	  0.00516	  0.65310	709.96997	 16.40	
 12.013	142.081	  0.60750	  0.09403	  0.45570	  0.41797	  0.12059	  0.01010	  0.64762	709.85999	 16.40	
 12.006	123.113	  0.61027	  0.14166	  0.39549	  0.47897	  0.07870	  0.01233	  0.64972	709.84998	 16.40	
 12.007	104.200	  0.61275	  0.20431	  0.32296	  0.51669	  0.05537	  0.01690	  0.65108	709.90002	 16.40	
 11.989	 85.301	  0.61277	  0.27698	  0.24600	  0.52404	  0.05048	  0.02083	  0.65080	709.88000	 16.40	
 12.013	 66.294	  0.60717	  0.35025	  0.17414	  0.50015	  0.06266	  0.02319	  0.64415	709.84998	 16.40	
 12.012	 47.388	  0.61452	  0.42306	  0.11951	  0.45935	  0.09550	  0.02475	  0.65188	709.97998	 16.40	
 11.990	 28.440	  0.61154	  0.47545	  0.07812	  0.39146	  0.14501	  0.01969	  0.64866	709.87000	 16.40	
 11.991	  9.464	  0.60789	  0.50034	  0.05955	  0.31415	  0.20809	  0.01432	  0.64478	709.88000	 16.40	
 11.991	 -9.464	  0.61311	  0.50752	  0.05751	  0.23873	  0.28398	  0.00630	  0.65100	709.96002	 16.40	
 11.990	-28.440	  0.60861	  0.47837	  0.07577	  0.16972	  0.35593	 -0.00147	  0.64788	710.02002	 16.40	
 12.012	-47.388	  0.60681	  0.42612	  0.11199	  0.11574	  0.42283	 -0.00697	  0.64530	709.84003	 16.40	
 12.013	-66.294	  0.60646	  0.35811	  0.16556	  0.08095	  0.46760	 -0.01129	  0.64467	709.92999	 16.40	
 11.989	-85.301	  0.60631	  0.28242	  0.23495	  0.06573	  0.49104	 -0.01352	  0.64682	709.87000	 16.40	
 12.007	-104.200	  0.60628	  0.21039	  0.31016	  0.06948	  0.48426	 -0.01406	  0.64735	709.84003	 16.40	
 12.006	-123.113	  0.60723	  0.14765	  0.38505	  0.09344	  0.45150	 -0.01370	  0.64885	709.85999	 16.40	
 12.013	-142.081	  0.60412	  0.09858	  0.44621	  0.13524	  0.39261	 -0.00793	  0.64378	709.90997	 16.40	
 12.009	-161.059	  0.60970	  0.06921	  0.49170	  0.19567	  0.32566	 -0.00548	  0.65002	709.96002	 16.40	
 16.000	180.000	  0.57106	 -0.02097	  0.55994	  0.23855	  0.22280	 -0.02242	  0.64918	709.88000	 16.40	
 15.990	-165.604	  0.56898	 -0.01466	  0.54559	  0.16578	  0.29645	 -0.02629	  0.64754	709.95001	 16.40	
 16.002	-151.165	  0.56862	  0.00560	  0.51154	  0.10357	  0.36989	 -0.02798	  0.64699	709.88000	 16.40	
 16.002	-136.836	  0.57164	  0.04049	  0.46240	  0.05347	  0.43674	 -0.03171	  0.64997	709.84003	 16.40	
 15.995	-122.439	  0.57492	  0.08870	  0.39821	  0.01542	  0.49589	 -0.03138	  0.65335	709.78998	 16.40	
 15.993	-107.966	  0.56862	  0.15001	  0.31751	 -0.00659	  0.52503	 -0.03261	  0.64552	709.96997	 16.40	
 16.005	-93.629	  0.57136	  0.22047	  0.24298	 -0.01580	  0.54344	 -0.03396	  0.64748	709.88000	 16.40	
 15.992	-79.234	  0.57010	  0.29247	  0.17138	 -0.01270	  0.53619	 -0.03450	  0.64569	709.87000	 16.40	
 16.009	-64.774	  0.57095	  0.36828	  0.10653	  0.00340	  0.51087	 -0.03465	  0.64727	710.00000	 16.40	
 15.997	-50.364	  0.56674	  0.43416	  0.05316	  0.03621	  0.45810	 -0.02886	  0.63995	709.97998	 16.40	
 15.997	-36.045	  0.57150	  0.49483	  0.01590	  0.08257	  0.40006	 -0.02616	  0.64436	709.90002	 16.40	
 16.000	-21.597	  0.57904	  0.54178	 -0.01103	  0.14232	  0.33278	 -0.02172	  0.65260	709.78998	 16.40	
 16.003	 -7.169	  0.57322	  0.55636	 -0.02291	  0.21010	  0.25440	 -0.01550	  0.64587	709.81000	 16.40	
 16.003	  7.169	  0.57582	  0.55738	 -0.02116	  0.28716	  0.18283	 -0.00866	  0.64814	710.01001	 16.40	
 16.000	 21.597	  0.57707	  0.53525	 -0.00600	  0.36566	  0.11811	 -0.00338	  0.65058	709.83002	 16.40	
 15.997	 36.045	  0.56848	  0.48549	  0.02356	  0.43371	  0.06354	  0.00270	  0.64082	709.81000	 16.40	
 15.997	 50.364	  0.57749	  0.43128	  0.06317	  0.50058	  0.01944	  0.00076	  0.65006	709.90997	 16.40	
 16.009	 64.774	  0.57835	  0.36201	  0.11934	  0.54797	 -0.00737	  0.00240	  0.65237	709.92999	 16.40	
 15.992	 79.234	  0.57377	  0.28468	  0.18309	  0.56871	 -0.02237	  0.00175	  0.64651	709.89001	 16.40	
 16.005	 93.629	  0.57682	  0.21096	  0.25749	  0.57795	 -0.02799	 -0.00391	  0.65138	709.89001	 16.40	
 15.993	107.966	  0.56960	  0.14244	  0.33123	  0.55545	 -0.01701	 -0.00512	  0.64466	709.82001	 16.40	
 15.995	122.439	  0.57023	  0.08354	  0.40582	  0.51784	  0.00486	 -0.01149	  0.64795	709.89001	 16.40	
 16.002	136.836	  0.57380	  0.03732	  0.47285	  0.46419	  0.04118	 -0.01340	  0.65180	709.91998	 16.40	
 16.002	151.165	  0.56861	  0.00308	  0.51889	  0.39198	  0.08964	 -0.01774	  0.64667	709.95001	 16.40	
 15.990	165.604	  0.57127	 -0.01589	  0.55065	  0.31834	  0.15005	 -0.01880	  0.64840	709.91998	 16.40	
 20.003	168.362	  0.51630	 -0.09451	  0.58730	  0.27258	  0.11696	 -0.04346	  0.64183	709.94000	 16.40	
 20.008	156.764	  0.52226	 -0.08253	  0.57139	  0.35262	  0.05743	 -0.03754	  0.65045	709.84003	 16.40	
 20.000	145.147	  0.52352	 -0.05865	  0.52987	  0.42908	  0.00215	 -0.03464	  0.65197	709.83002	 16.40	
 19.995	133.545	  0.52209	 -0.02306	  0.47403	  0.49150	 -0.03616	 -0.03149	  0.64742	709.88000	 16.40	
 20.009	121.926	  0.52280	  0.02050	  0.40663	  0.54724	 -0.07021	 -0.02922	  0.64828	709.97998	 16.40	
 20.005	110.327	  0.51973	  0.07288	  0.33069	  0.58491	 -0.09283	 -0.02787	  0.64465	709.83002	 16.40	
 19.989	 98.733	  0.52400	  0.13825	  0.25710	  0.61274	 -0.10502	 -0.02602	  0.64880	709.88000	 16.40	
 19.999	 87.075	  0.52394	  0.20795	  0.18378	  0.61380	 -0.10351	 -0.02526	  0.64560	709.97998	 16.40	
 19.992	 75.457	  0.52906	  0.28336	  0.11968	  0.60637	 -0.09487	 -0.01574	  0.64948	709.89001	 16.40	
 20.009	 63.844	  0.52927	  0.35904	  0.05725	  0.57959	 -0.08179	 -0.01793	  0.65125	709.84998	 16.40	
 19.989	 52.269	  0.52791	  0.42945	  0.00517	  0.53118	 -0.05644	 -0.01695	  0.64870	709.89001	 16.40	
 19.999	 40.602	  0.52550	  0.49136	 -0.03774	  0.46954	 -0.01993	 -0.02267	  0.64641	709.91998	 16.40	
 20.004	 29.051	  0.53077	  0.54824	 -0.06990	  0.40564	  0.02530	 -0.02410	  0.65327	709.92999	 16.40	
 20.005	 17.433	  0.52533	  0.58039	 -0.09200	  0.32660	  0.08055	 -0.02613	  0.64825	709.83002	 16.40	
 20.006	  5.780	  0.52454	  0.59664	 -0.10193	  0.24873	  0.14443	 -0.02772	  0.64685	709.85999	 16.40	
 20.006	 -5.780	  0.53042	  0.60388	 -0.10400	  0.17647	  0.21793	 -0.03301	  0.65394	709.85999	 16.40	
 20.005	-17.433	  0.52877	  0.58644	 -0.09480	  0.10798	  0.29162	 -0.03809	  0.65127	709.97998	 16.40	
 20.004	-29.051	  0.52475	  0.55024	 -0.07596	  0.04642	  0.36463	 -0.04383	  0.64723	709.92999	 16.40	
 19.999	-40.602	  0.52465	  0.50266	 -0.04768	 -0.00368	  0.43429	 -0.04434	  0.64822	709.91998	 16.40	
 19.989	-52.269	  0.52319	  0.44062	 -0.00754	 -0.04208	  0.49272	 -0.04781	  0.64592	709.96002	 16.40	
 20.009	-63.844	  0.52603	  0.37394	  0.04062	 -0.07148	  0.54269	 -0.05029	  0.65118	709.87000	 16.50	
 19.992	-75.457	  0.51995	  0.29681	  0.10004	 -0.08866	  0.57010	 -0.04989	  0.64566	709.98999	 16.50	
 19.999	-87.075	  0.51722	  0.22092	  0.16658	 -0.09623	  0.58112	 -0.05007	  0.64305	710.03003	 16.50	
 19.989	-98.733	  0.52216	  0.15166	  0.24275	 -0.09389	  0.58350	 -0.04701	  0.64913	709.84998	 16.40	
 20.005	-110.327	  0.52044	  0.08513	  0.31729	 -0.08401	  0.56223	 -0.04532	  0.64883	709.84998	 16.50	
 20.009	-121.926	  0.51941	  0.02853	  0.39063	 -0.06187	  0.52195	 -0.04349	  0.64688	709.92999	 16.50	
 19.995	-133.545	  0.51640	 -0.01767	  0.45507	 -0.02884	  0.46675	 -0.04542	  0.64184	709.84998	 16.50	
 20.000	-145.147	  0.51846	 -0.05369	  0.51507	  0.01288	  0.40573	 -0.04651	  0.64635	709.88000	 16.50	
 20.008	-156.764	  0.51777	 -0.07880	  0.55862	  0.06660	  0.33214	 -0.04168	  0.64472	709.84998	 16.50	
 20.003	-168.362	  0.51607	 -0.09470	  0.58409	  0.12724	  0.25769	 -0.03928	  0.64337	709.96002	 16.50	
 20.000	180.000	  0.52337	 -0.10180	  0.60309	  0.19962	  0.18697	 -0.04250	  0.65247	709.89001	 16.50	
