FileType=PCF
NHL=14
Date=03/18/19	13:49:58
Facility=APL
Serial=16071-8
Customer=NASA
NP=6
Mach=0.036000
Calibration=1:1
CalPts=490
TstPts=95
PortNumbering=AP Standard
Units=Torr C m/s kg/m^3 deg mm 
Theta[deg]	Phi[deg]	P1[Torr]	P2[Torr]	P3[Torr]	P4[Torr]	P5[Torr]	P6[Torr]	Pt[Torr]	Ps[Abs,Torr]	Ts[C]	
  0.000	  0.000	  0.63936	  0.30135	  0.28756	  0.30185	  0.28645	  0.04769	  0.64169	709.87000	 22.00	
  1.691	128.401	  0.63225	  0.28006	  0.30151	  0.32005	  0.25913	  0.04641	  0.63456	709.90002	 22.00	
  1.692	 77.194	  0.63811	  0.30607	  0.27848	  0.32877	  0.25582	  0.04777	  0.64014	709.98999	 22.00	
  1.699	 26.182	  0.62890	  0.32419	  0.25685	  0.30843	  0.26598	  0.05018	  0.63151	709.90997	 22.00	
  1.699	-26.182	  0.63986	  0.32934	  0.26046	  0.28718	  0.29699	  0.04613	  0.64077	709.90997	 22.00	
  1.692	-77.194	  0.63400	  0.30594	  0.27672	  0.27099	  0.31068	  0.04409	  0.63493	709.90002	 21.90	
  1.691	-128.401	  0.63856	  0.28550	  0.30266	  0.27717	  0.30885	  0.04350	  0.63922	709.85999	 22.00	
  1.700	180.000	  0.63273	  0.27161	  0.31249	  0.29467	  0.28273	  0.04466	  0.63448	709.90002	 21.90	
  3.400	180.000	  0.63237	  0.23884	  0.34529	  0.29127	  0.28162	  0.04061	  0.63511	709.90002	 21.90	
  3.388	-152.325	  0.63115	  0.24605	  0.33582	  0.26509	  0.30949	  0.03939	  0.63329	709.91998	 21.90	
  3.397	-124.529	  0.63346	  0.26673	  0.31474	  0.24702	  0.33328	  0.03906	  0.63398	709.85999	 21.90	
  3.399	-96.763	  0.63241	  0.29260	  0.28745	  0.23904	  0.34299	  0.04080	  0.63503	709.87000	 21.90	
  3.394	-69.283	  0.63362	  0.32069	  0.25945	  0.24184	  0.33948	  0.04091	  0.63628	709.90997	 21.90	
  3.400	-41.398	  0.63037	  0.34442	  0.23557	  0.25530	  0.31890	  0.04248	  0.63324	709.87000	 21.90	
  3.401	-14.021	  0.64042	  0.36412	  0.22721	  0.28344	  0.29567	  0.04546	  0.64314	709.89001	 21.90	
  3.401	 14.021	  0.63251	  0.35861	  0.22442	  0.30987	  0.26289	  0.04690	  0.63602	709.84998	 21.90	
  3.400	 41.398	  0.63517	  0.34553	  0.23801	  0.33944	  0.23928	  0.05102	  0.63876	709.84003	 21.90	
  3.394	 69.283	  0.63154	  0.31666	  0.26011	  0.35435	  0.22403	  0.04808	  0.63516	709.84998	 21.90	
  3.399	 96.763	  0.63411	  0.28899	  0.28983	  0.35890	  0.22291	  0.04746	  0.63750	709.79999	 21.90	
  3.397	124.529	  0.63342	  0.26180	  0.31843	  0.34615	  0.23272	  0.04547	  0.63685	709.83002	 21.90	
  3.388	152.325	  0.63386	  0.24512	  0.33912	  0.32149	  0.25464	  0.04450	  0.63676	709.89001	 21.90	
  5.099	161.165	  0.63155	  0.20925	  0.37290	  0.31907	  0.25006	  0.03681	  0.63556	709.84003	 21.90	
  5.109	142.013	  0.63446	  0.22171	  0.36032	  0.35071	  0.22388	  0.04038	  0.64027	709.92999	 21.90	
  5.095	123.033	  0.62599	  0.23873	  0.33075	  0.36970	  0.20112	  0.04288	  0.63237	709.96002	 21.90	
  5.105	104.191	  0.63019	  0.26678	  0.30340	  0.38716	  0.19096	  0.04530	  0.63601	709.96002	 21.90	
  5.093	 85.207	  0.62989	  0.29834	  0.27080	  0.39083	  0.18794	  0.04745	  0.63702	709.94000	 21.90	
  5.104	 66.290	  0.63016	  0.32867	  0.24199	  0.38279	  0.19264	  0.04649	  0.63719	710.00000	 21.90	
  5.094	 47.331	  0.63010	  0.35660	  0.21783	  0.36539	  0.20763	  0.04751	  0.63569	709.95001	 21.90	
  5.089	 28.397	  0.62942	  0.37825	  0.19999	  0.33822	  0.23026	  0.04553	  0.63523	709.83002	 21.90	
  5.096	  9.576	  0.62819	  0.38977	  0.19089	  0.30702	  0.25708	  0.04350	  0.63451	709.83002	 21.90	
  5.096	 -9.576	  0.63001	  0.39066	  0.19038	  0.27716	  0.28928	  0.04177	  0.63476	709.89001	 21.90	
  5.089	-28.397	  0.62989	  0.38096	  0.20013	  0.24901	  0.32108	  0.04049	  0.63473	709.83002	 21.90	
  5.094	-47.331	  0.63089	  0.36196	  0.21715	  0.22615	  0.34797	  0.03595	  0.63678	709.90002	 21.90	
  5.104	-66.290	  0.63293	  0.33495	  0.24098	  0.21151	  0.36828	  0.03538	  0.63792	709.94000	 21.90	
  5.093	-85.207	  0.63409	  0.30487	  0.26966	  0.20429	  0.37704	  0.03394	  0.63907	709.89001	 21.90	
  5.105	-104.191	  0.63490	  0.27510	  0.30148	  0.20679	  0.37636	  0.03249	  0.63957	709.92999	 21.90	
  5.095	-123.033	  0.63367	  0.24813	  0.33023	  0.21684	  0.36289	  0.03181	  0.63871	709.96997	 21.90	
  5.109	-142.013	  0.63837	  0.22683	  0.35833	  0.23516	  0.34261	  0.03328	  0.64289	709.87000	 21.90	
  5.099	-161.165	  0.63297	  0.21192	  0.37169	  0.25909	  0.31102	  0.03416	  0.63829	709.91998	 21.90	
  5.100	180.000	  0.63253	  0.20590	  0.37835	  0.28800	  0.28061	  0.03498	  0.63867	710.03003	 21.80	
  6.800	180.000	  0.63016	  0.17116	  0.41100	  0.28201	  0.27758	  0.02860	  0.63967	709.98999	 21.80	
  6.796	-166.229	  0.62888	  0.17606	  0.40486	  0.25306	  0.30763	  0.02798	  0.63797	709.96997	 21.80	
  6.808	-152.311	  0.62670	  0.18608	  0.39041	  0.22639	  0.33640	  0.02836	  0.63614	709.94000	 21.80	
  6.795	-138.383	  0.63070	  0.20378	  0.37197	  0.20437	  0.36445	  0.02673	  0.63905	709.87000	 21.80	
  6.792	-124.591	  0.62875	  0.22440	  0.34485	  0.18743	  0.38356	  0.02378	  0.63617	709.95001	 21.80	
  6.787	-110.754	  0.62621	  0.24914	  0.31506	  0.17575	  0.39709	  0.02468	  0.63439	709.96002	 21.80	
  6.800	-96.985	  0.62648	  0.27745	  0.28483	  0.17047	  0.40395	  0.02445	  0.63549	709.98999	 21.80	
  6.800	-83.015	  0.62504	  0.30659	  0.25328	  0.16995	  0.40342	  0.02422	  0.63500	709.84998	 21.80	
  6.787	-69.246	  0.62989	  0.33889	  0.22622	  0.17732	  0.39563	  0.02561	  0.63883	709.91998	 21.80	
  6.792	-55.409	  0.62465	  0.36600	  0.20045	  0.18850	  0.37749	  0.03011	  0.63466	709.96002	 21.80	
  6.795	-41.617	  0.62516	  0.39053	  0.18115	  0.20590	  0.35488	  0.03246	  0.63546	709.91998	 21.80	
  6.808	-27.689	  0.62401	  0.40774	  0.16525	  0.22936	  0.32615	  0.03518	  0.63570	709.92999	 21.80	
  6.796	-13.771	  0.62492	  0.41989	  0.15671	  0.25747	  0.29645	  0.03794	  0.63594	710.04999	 21.80	
  6.800	  0.000	  0.61978	  0.41979	  0.15309	  0.28522	  0.26395	  0.03873	  0.63154	709.90997	 21.80	
  6.796	 13.771	  0.62860	  0.42035	  0.15673	  0.31933	  0.23657	  0.03978	  0.64067	709.98999	 21.80	
  6.808	 27.689	  0.62384	  0.40492	  0.16620	  0.34854	  0.20771	  0.04123	  0.63697	710.03003	 21.80	
  6.795	 41.617	  0.62556	  0.38501	  0.18465	  0.37659	  0.18708	  0.04356	  0.63797	709.96002	 21.80	
  6.792	 55.409	  0.62290	  0.35803	  0.20437	  0.39722	  0.16902	  0.04579	  0.63436	709.91998	 21.80	
  6.787	 69.246	  0.62083	  0.32850	  0.22994	  0.41055	  0.15852	  0.04543	  0.63304	709.96002	 21.80	
  6.800	 83.015	  0.62224	  0.29926	  0.25940	  0.41916	  0.15331	  0.04382	  0.63418	709.90997	 21.80	
  6.800	 96.985	  0.62536	  0.26936	  0.29181	  0.42110	  0.15423	  0.04265	  0.63664	709.85999	 21.80	
  6.787	110.754	  0.62135	  0.23931	  0.31968	  0.40907	  0.16024	  0.04250	  0.63305	709.89001	 21.80	
  6.792	124.591	  0.62562	  0.21547	  0.35193	  0.39432	  0.17508	  0.03923	  0.63725	709.98999	 21.80	
  6.795	138.383	  0.62316	  0.19531	  0.37404	  0.37020	  0.19311	  0.03617	  0.63350	709.90002	 21.80	
  6.808	152.311	  0.62236	  0.18069	  0.39120	  0.34183	  0.21513	  0.03536	  0.63163	710.02002	 21.80	
  6.796	166.229	  0.62346	  0.17237	  0.40395	  0.31084	  0.24499	  0.03294	  0.63237	710.00000	 21.80	
  8.491	168.704	  0.61649	  0.13667	  0.43364	  0.30472	  0.23750	  0.02505	  0.63385	710.01001	 21.80	
  8.502	157.493	  0.62398	  0.14339	  0.42897	  0.33923	  0.20966	  0.02762	  0.64098	710.01001	 21.80	
  8.494	146.194	  0.61735	  0.15524	  0.40880	  0.36667	  0.18215	  0.03158	  0.63505	709.92999	 21.80	
  8.495	135.039	  0.61589	  0.17023	  0.38639	  0.39441	  0.15781	  0.02797	  0.63512	709.87000	 21.80	
  8.487	123.723	  0.61689	  0.19109	  0.36190	  0.41827	  0.14002	  0.03363	  0.63621	709.94000	 21.80	
  8.492	112.575	  0.61830	  0.21579	  0.33300	  0.43522	  0.12810	  0.03488	  0.63764	709.95001	 21.80	
  8.510	101.220	  0.61539	  0.24374	  0.29990	  0.44532	  0.11784	  0.03667	  0.63485	709.92999	 21.80	
  8.500	 90.000	  0.61556	  0.27447	  0.26859	  0.44969	  0.11687	  0.03816	  0.63587	710.01001	 21.80	
  8.510	 78.780	  0.61245	  0.30455	  0.23582	  0.44449	  0.11681	  0.03781	  0.63289	709.94000	 21.80	
  8.492	 67.425	  0.61339	  0.33655	  0.20668	  0.43634	  0.12291	  0.03969	  0.63358	710.01001	 21.80	
  8.487	 56.277	  0.61457	  0.36688	  0.18336	  0.42000	  0.13706	  0.03973	  0.63581	709.92999	 21.80	
  8.495	 44.961	  0.61409	  0.39413	  0.16077	  0.39883	  0.15228	  0.03907	  0.63512	709.94000	 21.80	
  8.494	 33.806	  0.61136	  0.41464	  0.14146	  0.37132	  0.17188	  0.03997	  0.63149	709.96997	 21.80	
  8.502	 22.507	  0.61672	  0.43569	  0.13101	  0.34465	  0.19790	  0.03773	  0.63634	710.00000	 21.80	
  8.491	 11.296	  0.61772	  0.44768	  0.12267	  0.31399	  0.22675	  0.03396	  0.63740	709.96997	 21.80	
  8.500	  0.000	  0.61504	  0.45090	  0.11902	  0.27992	  0.25731	  0.03213	  0.63536	709.98999	 21.80	
  8.491	-11.296	  0.62005	  0.45110	  0.12173	  0.25176	  0.29097	  0.02960	  0.63988	709.97998	 21.80	
  8.502	-22.507	  0.61599	  0.43966	  0.12743	  0.22159	  0.32020	  0.02909	  0.63592	709.88000	 21.80	
  8.494	-33.806	  0.61578	  0.42260	  0.13968	  0.19602	  0.34954	  0.02514	  0.63346	709.96002	 21.80	
  8.495	-44.961	  0.61859	  0.40284	  0.15614	  0.17486	  0.37762	  0.02245	  0.63606	709.90997	 21.80	
  8.487	-56.277	  0.62144	  0.37915	  0.17819	  0.15761	  0.40216	  0.02337	  0.63818	709.91998	 21.80	
  8.492	-67.425	  0.62038	  0.34927	  0.20250	  0.14488	  0.41747	  0.01950	  0.63787	709.90002	 21.80	
  8.510	-78.780	  0.62311	  0.32029	  0.23184	  0.13857	  0.43250	  0.01895	  0.63825	710.03003	 21.80	
  8.500	-90.000	  0.62007	  0.28641	  0.26204	  0.13394	  0.43526	  0.01560	  0.63628	709.90997	 21.80	
  8.510	-101.220	  0.62513	  0.25755	  0.29514	  0.13648	  0.43531	  0.01468	  0.64015	709.95001	 21.80	
  8.492	-112.575	  0.62063	  0.22694	  0.32472	  0.14338	  0.42410	  0.01397	  0.63686	710.02002	 21.80	
  8.487	-123.723	  0.62559	  0.20216	  0.35784	  0.15651	  0.41050	  0.01502	  0.64108	710.01001	 21.80	
  8.495	-135.039	  0.62136	  0.17957	  0.38169	  0.17044	  0.38802	  0.01700	  0.63631	709.96002	 21.80	
  8.494	-146.194	  0.62595	  0.16157	  0.40838	  0.19210	  0.36506	  0.01858	  0.64119	709.94000	 21.80	
  8.502	-157.493	  0.62546	  0.14633	  0.42665	  0.21663	  0.33463	  0.01842	  0.64131	709.92999	 21.80	
  8.491	-168.704	  0.61778	  0.13656	  0.43256	  0.24314	  0.29874	  0.02108	  0.63396	709.79999	 21.80	
  8.500	180.000	  0.61734	  0.13242	  0.43766	  0.27140	  0.26798	  0.01902	  0.63395	709.83002	 21.80	
 10.200	180.000	  0.60806	  0.09778	  0.46405	  0.26261	  0.26078	  0.01163	  0.63428	710.00000	 21.80	
 10.191	-170.497	  0.60533	  0.10096	  0.45780	  0.23186	  0.29072	  0.01146	  0.63029	709.96997	 21.80	
 10.210	-161.034	  0.61085	  0.10799	  0.45238	  0.20560	  0.32450	  0.01224	  0.63482	709.92999	 21.80	
 10.194	-151.526	  0.61119	  0.12131	  0.43599	  0.17976	  0.35727	  0.00952	  0.63630	709.85999	 21.80	
 10.190	-142.105	  0.60916	  0.13611	  0.41444	  0.15653	  0.38380	  0.00653	  0.63406	709.89001	 21.80	
 10.215	-132.646	  0.61729	  0.15550	  0.39602	  0.13744	  0.41269	  0.00641	  0.64223	709.96002	 21.80	
 10.203	-123.092	  0.61461	  0.17845	  0.36416	  0.12005	  0.43429	  0.00348	  0.63867	710.03003	 21.80	
 10.192	-113.678	  0.61374	  0.20377	  0.33383	  0.10874	  0.44890	  0.00461	  0.63737	709.95001	 21.80	
 10.208	-104.249	  0.61149	  0.23307	  0.30139	  0.10332	  0.45722	  0.00581	  0.63272	709.90002	 21.80	
 10.210	-94.801	  0.60920	  0.26183	  0.26655	  0.09710	  0.46154	  0.00610	  0.63240	709.85999	 21.80	
 10.210	-85.199	  0.60903	  0.29300	  0.23463	  0.09673	  0.45965	  0.00425	  0.63511	709.91998	 21.80	
 10.208	-75.751	  0.60994	  0.32449	  0.20605	  0.10102	  0.45514	  0.00511	  0.63522	709.94000	 21.80	
 10.192	-66.322	  0.60781	  0.35616	  0.17996	  0.11067	  0.44189	  0.00953	  0.63350	709.90997	 21.80	
 10.203	-56.908	  0.61425	  0.38869	  0.15634	  0.12599	  0.42520	  0.01445	  0.63908	709.91998	 21.80	
 10.215	-47.354	  0.61400	  0.41580	  0.13479	  0.14394	  0.40074	  0.01859	  0.63876	709.98999	 21.80	
 10.190	-37.895	  0.60763	  0.43504	  0.11571	  0.16538	  0.36920	  0.01598	  0.63371	709.81000	 21.80	
 10.194	-28.474	  0.61030	  0.45613	  0.10094	  0.18774	  0.34262	  0.02041	  0.63705	709.84998	 21.80	
 10.210	-18.966	  0.60611	  0.46749	  0.09095	  0.21412	  0.30936	  0.02333	  0.63341	709.85999	 21.80	
 10.191	 -9.503	  0.60906	  0.47802	  0.08423	  0.24477	  0.27700	  0.02178	  0.63889	709.89001	 21.80	
 10.200	  0.000	  0.60976	  0.48041	  0.08317	  0.27626	  0.24728	  0.02703	  0.63895	709.89001	 21.80	
 10.191	  9.503	  0.60303	  0.47078	  0.08476	  0.30599	  0.21285	  0.02598	  0.63227	709.94000	 21.80	
 10.210	 18.966	  0.60776	  0.46619	  0.08991	  0.33973	  0.18541	  0.02686	  0.63830	709.97998	 21.80	
 10.194	 28.474	  0.60650	  0.44851	  0.10233	  0.36875	  0.16013	  0.03110	  0.63690	709.96997	 21.80	
 10.190	 37.895	  0.60545	  0.42798	  0.11735	  0.39896	  0.13642	  0.03163	  0.63800	709.98999	 21.80	
 10.215	 47.354	  0.60221	  0.40200	  0.13567	  0.42085	  0.11786	  0.03338	  0.63378	709.96997	 21.80	
 10.203	 56.908	  0.60435	  0.37506	  0.16015	  0.44382	  0.10267	  0.03405	  0.63444	709.96002	 21.80	
 10.192	 66.322	  0.60226	  0.34270	  0.18556	  0.45864	  0.09130	  0.03638	  0.63289	709.90002	 21.80	
 10.208	 75.751	  0.60274	  0.31232	  0.21194	  0.46859	  0.08348	  0.03290	  0.63387	709.89001	 21.80	
 10.210	 85.199	  0.60910	  0.28240	  0.24517	  0.47700	  0.08194	  0.03147	  0.63821	709.88000	 21.80	
 10.210	 94.801	  0.60812	  0.25030	  0.27673	  0.47606	  0.08140	  0.02922	  0.63802	709.96997	 21.80	
 10.208	104.249	  0.60809	  0.22042	  0.31065	  0.46889	  0.08768	  0.03066	  0.63800	709.96997	 21.80	
 10.192	113.678	  0.61120	  0.19334	  0.34334	  0.45841	  0.09682	  0.02867	  0.63959	709.95001	 21.80	
 10.203	123.092	  0.60764	  0.16891	  0.37029	  0.43789	  0.10968	  0.02624	  0.63657	709.77002	 21.80	
 10.215	132.646	  0.60757	  0.14714	  0.39735	  0.41641	  0.12647	  0.02349	  0.63604	709.87000	 21.80	
 10.190	142.105	  0.60467	  0.12914	  0.41845	  0.38647	  0.14788	  0.02098	  0.63222	709.92999	 21.80	
 10.194	151.526	  0.61258	  0.11659	  0.44207	  0.36085	  0.17415	  0.02121	  0.63818	709.91998	 21.80	
 10.210	161.034	  0.61185	  0.10675	  0.45612	  0.32960	  0.20136	  0.01842	  0.63703	709.96997	 21.70	
 10.191	170.497	  0.61729	  0.10384	  0.46740	  0.30027	  0.23340	  0.01604	  0.64164	710.00000	 21.70	
 11.899	171.783	  0.60281	  0.06654	  0.49181	  0.28817	  0.22375	  0.00587	  0.64069	709.96002	 21.70	
 11.890	163.610	  0.60069	  0.07187	  0.48329	  0.32018	  0.19305	  0.00921	  0.64004	709.89001	 21.80	
 11.889	155.445	  0.59566	  0.07773	  0.46803	  0.34945	  0.16356	  0.00876	  0.63468	709.97998	 21.70	
 11.909	147.299	  0.59852	  0.08880	  0.45410	  0.38193	  0.13786	  0.01290	  0.63626	710.00000	 21.70	
 11.902	139.148	  0.59916	  0.10376	  0.43402	  0.41111	  0.11429	  0.01374	  0.63813	709.90002	 21.70	
 11.894	130.867	  0.59812	  0.12216	  0.40784	  0.43612	  0.09473	  0.01570	  0.63750	710.01001	 21.70	
 11.897	122.732	  0.60005	  0.14403	  0.38249	  0.45967	  0.07952	  0.01744	  0.64006	710.00000	 21.70	
 11.903	114.597	  0.59620	  0.16726	  0.35008	  0.47619	  0.06545	  0.02060	  0.63709	709.91998	 21.70	
 11.893	106.346	  0.60031	  0.19639	  0.31985	  0.49213	  0.05709	  0.02231	  0.64046	709.87000	 21.70	
 11.892	 98.155	  0.59766	  0.22523	  0.28571	  0.49944	  0.05171	  0.02359	  0.63915	709.92999	 21.70	
 11.900	 90.000	  0.60117	  0.25677	  0.25460	  0.50631	  0.04729	  0.02439	  0.64327	709.91998	 21.70	
 11.892	 81.845	  0.59547	  0.28699	  0.22165	  0.50038	  0.04972	  0.02539	  0.63783	709.95001	 21.70	
 11.893	 73.654	  0.59843	  0.32065	  0.19253	  0.49573	  0.05389	  0.02744	  0.64019	709.96002	 21.70	
 11.903	 65.403	  0.59229	  0.34989	  0.16138	  0.47935	  0.05953	  0.02731	  0.63421	709.89001	 21.80	
 11.897	 57.268	  0.59321	  0.38108	  0.13717	  0.46314	  0.07194	  0.02699	  0.63545	709.94000	 21.70	
 11.894	 49.133	  0.59441	  0.41066	  0.11522	  0.44488	  0.08682	  0.02764	  0.63737	709.96997	 21.70	
 11.902	 40.852	  0.59042	  0.43454	  0.09551	  0.41754	  0.10393	  0.02706	  0.63329	709.92999	 21.70	
 11.909	 32.701	  0.59196	  0.45752	  0.07915	  0.39038	  0.12491	  0.02475	  0.63445	709.95001	 21.70	
 11.889	 24.555	  0.59002	  0.47455	  0.06527	  0.35892	  0.14922	  0.02429	  0.63230	710.06000	 21.70	
 11.890	 16.390	  0.58926	  0.48660	  0.05697	  0.32726	  0.17525	  0.02134	  0.63233	710.01001	 21.70	
 11.899	  8.217	  0.59519	  0.49986	  0.05213	  0.29823	  0.20571	  0.02030	  0.63717	710.09003	 21.70	
 11.900	  0.000	  0.59583	  0.50444	  0.04801	  0.26499	  0.23697	  0.01856	  0.63851	710.03003	 21.70	
 11.899	 -8.217	  0.59739	  0.50360	  0.04898	  0.23431	  0.26915	  0.01769	  0.63862	709.96997	 21.70	
 11.890	-16.390	  0.59899	  0.49757	  0.05487	  0.20469	  0.30366	  0.01362	  0.64020	709.85999	 21.70	
 11.889	-24.555	  0.59937	  0.48733	  0.06166	  0.17693	  0.33469	  0.01093	  0.64059	709.90997	 21.70	
 11.909	-32.701	  0.59299	  0.46491	  0.07373	  0.15026	  0.36257	  0.00812	  0.63288	709.84003	 21.70	
 11.902	-40.852	  0.59377	  0.44471	  0.08849	  0.12732	  0.39090	  0.00585	  0.63236	709.91998	 21.70	
 11.894	-49.133	  0.59682	  0.42171	  0.10870	  0.10932	  0.41971	  0.00464	  0.63461	709.84003	 21.70	
 11.897	-57.268	  0.59712	  0.39427	  0.12998	  0.09318	  0.44245	  0.00272	  0.63456	709.94000	 21.70	
 11.903	-65.403	  0.60101	  0.36661	  0.15498	  0.08076	  0.46332	  0.00033	  0.63871	709.81000	 21.70	
 11.893	-73.654	  0.59501	  0.33198	  0.18231	  0.07194	  0.47168	  0.00064	  0.63131	709.79999	 21.70	
 11.892	-81.845	  0.59696	  0.29933	  0.21147	  0.06633	  0.48176	 -0.00250	  0.63298	709.89001	 21.70	
 11.900	-90.000	  0.60116	  0.27125	  0.24175	  0.06418	  0.48928	 -0.00339	  0.63736	709.90997	 21.70	
 11.892	-98.155	  0.59925	  0.23978	  0.27323	  0.06543	  0.48607	 -0.00284	  0.63417	709.90002	 21.70	
 11.893	-106.346	  0.60149	  0.21037	  0.30674	  0.06967	  0.48210	 -0.00488	  0.63807	709.96997	 21.70	
 11.903	-114.597	  0.60003	  0.18232	  0.33758	  0.07790	  0.46843	 -0.00450	  0.63551	709.90002	 21.70	
 11.897	-122.732	  0.60513	  0.15846	  0.37080	  0.09022	  0.45616	 -0.00429	  0.64106	709.82001	 21.70	
 11.894	-130.867	  0.60079	  0.13479	  0.39681	  0.10396	  0.43160	 -0.00364	  0.63553	709.98999	 21.70	
 11.902	-139.148	  0.60361	  0.11431	  0.42532	  0.12281	  0.40916	 -0.00368	  0.63829	709.94000	 21.70	
 11.909	-147.299	  0.60771	  0.09675	  0.45193	  0.14435	  0.38305	 -0.00170	  0.64260	709.85999	 21.70	
 11.889	-155.445	  0.60278	  0.08383	  0.46481	  0.16873	  0.35015	  0.00147	  0.63757	709.92999	 21.70	
 11.890	-163.610	  0.60081	  0.07408	  0.47854	  0.19429	  0.31750	  0.00269	  0.63708	709.88000	 21.70	
 11.899	-171.783	  0.59525	  0.06789	  0.48393	  0.22175	  0.28438	  0.00354	  0.63174	709.87000	 21.70	
 11.900	180.000	  0.59919	  0.06505	  0.48960	  0.25292	  0.25361	  0.00509	  0.63588	709.90997	 21.70	
 13.600	180.000	  0.58489	  0.03078	  0.51452	  0.24230	  0.24356	 -0.00197	  0.63655	709.91998	 21.70	
 13.608	-172.853	  0.58973	  0.03287	  0.51407	  0.21289	  0.27698	 -0.00388	  0.63978	709.83002	 21.70	
 13.611	-165.583	  0.58546	  0.03943	  0.50265	  0.18242	  0.30860	 -0.00431	  0.63422	709.90002	 21.70	
 13.601	-158.353	  0.58810	  0.04710	  0.49109	  0.15434	  0.34121	 -0.00818	  0.63685	709.73999	 21.70	
 13.609	-151.210	  0.58648	  0.05921	  0.47355	  0.13007	  0.37055	 -0.01063	  0.63454	709.79999	 21.70	
 13.611	-143.999	  0.59031	  0.07202	  0.45597	  0.10702	  0.40214	 -0.01079	  0.63900	709.79999	 21.70	
 13.601	-136.825	  0.58593	  0.08978	  0.42888	  0.08712	  0.42662	 -0.01391	  0.63509	710.01001	 21.70	
 13.596	-129.640	  0.59080	  0.11026	  0.40440	  0.07024	  0.45390	 -0.01384	  0.63893	709.94000	 21.70	
 13.611	-122.431	  0.59190	  0.13321	  0.37688	  0.05690	  0.47502	 -0.01293	  0.63905	709.94000	 21.70	
 13.604	-115.211	  0.59008	  0.15780	  0.34421	  0.04535	  0.49087	 -0.01326	  0.63866	709.88000	 21.70	
 13.595	-108.042	  0.59085	  0.18547	  0.31348	  0.03635	  0.50410	 -0.01474	  0.63969	709.88000	 21.70	
 13.607	-100.793	  0.59113	  0.21460	  0.27877	  0.03145	  0.51250	 -0.01503	  0.64049	709.84998	 21.70	
 13.601	-93.617	  0.59007	  0.24622	  0.24729	  0.02841	  0.51508	 -0.01468	  0.63977	709.83002	 21.70	
 13.601	-86.383	  0.58658	  0.27600	  0.21485	  0.03036	  0.51040	 -0.01178	  0.63667	709.83002	 21.70	
 13.607	-79.207	  0.58711	  0.30911	  0.18503	  0.03376	  0.50631	 -0.00983	  0.63780	709.88000	 21.70	
 13.595	-71.958	  0.58318	  0.33924	  0.15442	  0.03958	  0.49147	 -0.00975	  0.63225	709.91998	 21.70	
 13.604	-64.789	  0.58808	  0.37387	  0.12934	  0.04841	  0.48211	 -0.00943	  0.63957	709.89001	 21.70	
 13.611	-57.569	  0.58898	  0.40493	  0.10543	  0.06105	  0.46308	 -0.00713	  0.64032	709.91998	 21.70	
 13.596	-50.360	  0.58361	  0.42997	  0.08395	  0.07716	  0.43732	 -0.00671	  0.63642	709.90002	 21.70	
 13.601	-43.175	  0.58618	  0.45740	  0.06416	  0.09427	  0.41390	 -0.00438	  0.63954	709.89001	 21.70	
 13.611	-36.001	  0.58075	  0.47493	  0.04921	  0.11552	  0.38229	 -0.00197	  0.63229	709.83002	 21.70	
 13.609	-28.790	  0.58467	  0.49770	  0.03682	  0.14017	  0.35357	  0.00316	  0.63875	709.88000	 21.70	
 13.601	-21.647	  0.58059	  0.50908	  0.02614	  0.16422	  0.32206	  0.00391	  0.63712	709.90997	 21.70	
 13.611	-14.417	  0.58311	  0.52209	  0.01876	  0.19308	  0.28982	  0.00685	  0.63906	709.94000	 21.70	
 13.608	 -7.147	  0.57586	  0.52094	  0.01533	  0.22140	  0.25415	  0.00755	  0.63201	709.90002	 21.70	
 13.600	  0.000	  0.57868	  0.52564	  0.01449	  0.25278	  0.22431	  0.01006	  0.63490	709.90002	 21.70	
 13.608	  7.147	  0.57981	  0.52332	  0.01550	  0.28623	  0.19405	  0.01270	  0.63641	709.88000	 21.70	
 13.611	 14.417	  0.57937	  0.51453	  0.02185	  0.31946	  0.16410	  0.01556	  0.63644	709.84998	 21.70	
 13.601	 21.647	  0.57985	  0.50266	  0.02947	  0.35076	  0.13593	  0.01551	  0.63681	709.78998	 21.70	
 13.609	 28.790	  0.57993	  0.48589	  0.04079	  0.38254	  0.11177	  0.01832	  0.63749	709.84998	 21.70	
 13.611	 36.001	  0.57864	  0.46555	  0.05634	  0.41102	  0.09003	  0.01817	  0.63542	709.91998	 21.70	
 13.601	 43.175	  0.58103	  0.44277	  0.07103	  0.43943	  0.06938	  0.01775	  0.63912	709.85999	 21.70	
 13.596	 50.360	  0.57781	  0.41409	  0.09169	  0.46035	  0.05390	  0.01861	  0.63551	709.85999	 21.70	
 13.611	 57.569	  0.57798	  0.38515	  0.11343	  0.48200	  0.03860	  0.01789	  0.63507	709.82001	 21.70	
 13.604	 64.789	  0.57722	  0.35423	  0.13716	  0.49883	  0.02771	  0.01918	  0.63408	709.87000	 21.70	
 13.595	 71.958	  0.57593	  0.32120	  0.16432	  0.51012	  0.01947	  0.01847	  0.63367	709.87000	 21.70	
 13.607	 79.207	  0.57958	  0.29029	  0.19520	  0.52051	  0.01616	  0.01850	  0.63587	709.73999	 21.70	
 13.601	 86.383	  0.58170	  0.25872	  0.22662	  0.52590	  0.01300	  0.01760	  0.63814	709.84998	 21.70	
 13.601	 93.617	  0.58113	  0.22766	  0.25815	  0.52489	  0.01383	  0.01628	  0.63686	709.79999	 21.70	
 13.607	100.793	  0.57909	  0.19616	  0.28981	  0.51814	  0.01634	  0.01463	  0.63616	709.82001	 21.70	
 13.595	108.042	  0.58582	  0.17014	  0.32585	  0.51240	  0.02550	  0.01454	  0.63989	709.77002	 21.70	
 13.604	115.211	  0.58155	  0.14206	  0.35498	  0.49273	  0.03427	  0.01228	  0.63475	709.85999	 21.70	
 13.611	122.431	  0.58193	  0.11711	  0.38730	  0.47417	  0.04742	  0.00952	  0.63579	709.89001	 21.70	
 13.596	129.640	  0.58093	  0.09657	  0.41458	  0.45179	  0.06169	  0.00673	  0.63343	709.85999	 21.70	
 13.601	136.825	  0.58672	  0.07857	  0.44393	  0.43024	  0.08046	  0.00681	  0.63956	709.78998	 21.70	
 13.611	143.999	  0.58380	  0.06302	  0.46417	  0.40224	  0.10028	  0.00585	  0.63676	709.85999	 21.70	
 13.609	151.210	  0.58050	  0.04938	  0.48063	  0.36767	  0.12513	  0.00514	  0.63249	709.90002	 21.70	
 13.601	158.353	  0.58260	  0.03949	  0.49736	  0.33905	  0.15083	  0.00264	  0.63402	709.85999	 21.70	
 13.611	165.583	  0.58136	  0.03325	  0.50655	  0.30572	  0.17902	 -0.00165	  0.63271	709.78998	 21.70	
 13.608	172.853	  0.58604	  0.02921	  0.51601	  0.27493	  0.21103	 -0.00154	  0.63772	709.83002	 21.70	
 15.298	173.587	  0.57081	 -0.00466	  0.53742	  0.26132	  0.19964	 -0.01114	  0.63853	709.78003	 21.70	
 15.291	167.167	  0.57108	 -0.00126	  0.53171	  0.29374	  0.16977	 -0.00994	  0.63788	709.78998	 21.70	
 15.307	160.676	  0.56673	  0.00544	  0.51925	  0.32435	  0.14145	 -0.00798	  0.63371	709.69000	 21.70	
 15.300	154.261	  0.56992	  0.01288	  0.50973	  0.35826	  0.11482	 -0.00767	  0.63890	709.81000	 21.70	
 15.288	147.854	  0.56799	  0.02524	  0.49037	  0.38871	  0.09028	 -0.00249	  0.63734	709.85999	 21.70	
 15.293	141.428	  0.56449	  0.03829	  0.46702	  0.41435	  0.06822	 -0.00304	  0.63239	709.81000	 21.70	
 15.299	134.985	  0.57035	  0.05307	  0.44929	  0.44596	  0.04823	 -0.00480	  0.64147	709.87000	 21.60	
 15.305	128.583	  0.56408	  0.07316	  0.41771	  0.46719	  0.03190	 -0.00323	  0.63192	709.96002	 21.70	
 15.309	122.142	  0.56692	  0.09484	  0.39140	  0.49149	  0.01677	 -0.00166	  0.63660	709.95001	 21.70	
 15.304	115.711	  0.56596	  0.11717	  0.35999	  0.51042	  0.00384	  0.00286	  0.63509	709.87000	 21.70	
 15.297	109.291	  0.56503	  0.14176	  0.32770	  0.52525	 -0.00598	  0.00708	  0.63566	709.92999	 21.70	
 15.293	102.897	  0.56161	  0.16800	  0.29308	  0.53513	 -0.01544	  0.00566	  0.63278	709.96997	 21.70	
 15.293	 96.458	  0.56020	  0.19601	  0.26306	  0.53940	 -0.01764	  0.00930	  0.63243	709.90997	 21.70	
 15.300	 90.000	  0.56217	  0.22772	  0.22976	  0.54576	 -0.02119	  0.00609	  0.63455	709.88000	 21.70	
 15.293	 83.542	  0.55994	  0.25848	  0.19687	  0.54436	 -0.02277	  0.00704	  0.63381	709.97998	 21.70	
 15.293	 77.103	  0.56117	  0.29273	  0.16794	  0.53952	 -0.01812	  0.00787	  0.63398	709.98999	 21.70	
 15.297	 70.709	  0.56427	  0.32434	  0.14345	  0.52996	 -0.00822	  0.01008	  0.63760	709.83002	 21.70	
 15.304	 64.289	  0.56510	  0.35790	  0.11571	  0.51874	 -0.00196	  0.01123	  0.63895	709.97998	 21.70	
 15.309	 57.858	  0.56011	  0.38581	  0.09142	  0.50038	  0.00732	  0.00970	  0.63394	709.89001	 21.60	
 15.305	 51.417	  0.56609	  0.41982	  0.06873	  0.48318	  0.02065	  0.00964	  0.63983	709.89001	 21.60	
 15.299	 45.015	  0.55812	  0.44006	  0.04845	  0.45299	  0.03546	  0.00876	  0.63151	709.92999	 21.70	
 15.293	 38.572	  0.56338	  0.46991	  0.03097	  0.43086	  0.05368	  0.00793	  0.63814	709.98999	 21.70	
 15.288	 32.146	  0.56126	  0.49049	  0.01496	  0.40127	  0.07336	  0.00862	  0.63468	709.90997	 21.60	
 15.300	 25.739	  0.55955	  0.50775	  0.00274	  0.36825	  0.09642	  0.00483	  0.63414	709.95001	 21.60	
 15.307	 19.324	  0.56435	  0.52609	 -0.00596	  0.33947	  0.12296	  0.00501	  0.63846	709.95001	 21.60	
 15.291	 12.833	  0.56463	  0.53794	 -0.01297	  0.30809	  0.15108	  0.00472	  0.63838	709.98999	 21.60	
 15.298	  6.413	  0.56301	  0.54364	 -0.01692	  0.27517	  0.17996	  0.00426	  0.63606	710.01001	 21.60	
 15.300	  0.000	  0.56701	  0.55079	 -0.01797	  0.24394	  0.21210	  0.00308	  0.63921	709.88000	 21.60	
 15.298	 -6.413	  0.56248	  0.54458	 -0.02050	  0.20983	  0.23997	 -0.00236	  0.63536	709.91998	 21.60	
 15.291	-12.833	  0.56119	  0.53919	 -0.01536	  0.18024	  0.27360	 -0.00393	  0.63253	709.91998	 21.60	
 15.307	-19.324	  0.56328	  0.53065	 -0.00992	  0.15263	  0.30606	 -0.00445	  0.63413	710.00000	 21.60	
 15.300	-25.739	  0.56392	  0.51704	 -0.00026	  0.12554	  0.33968	 -0.00810	  0.63428	709.96002	 21.60	
 15.288	-32.146	  0.57288	  0.50883	  0.01030	  0.10327	  0.37565	 -0.01018	  0.64311	709.90002	 21.60	
 15.293	-38.572	  0.56946	  0.48464	  0.02394	  0.07953	  0.40321	 -0.01072	  0.64049	709.96002	 21.60	
 15.299	-45.015	  0.56466	  0.45816	  0.03958	  0.06105	  0.42607	 -0.01237	  0.63303	710.00000	 21.70	
 15.305	-51.417	  0.56944	  0.43506	  0.05830	  0.04295	  0.45564	 -0.01588	  0.63900	709.94000	 21.60	
 15.309	-57.858	  0.56501	  0.40364	  0.07923	  0.02862	  0.47392	 -0.01730	  0.63249	709.91998	 21.60	
 15.304	-64.289	  0.56605	  0.37369	  0.10284	  0.01715	  0.49345	 -0.01821	  0.63465	710.03003	 21.60	
 15.297	-70.709	  0.56769	  0.34390	  0.12923	  0.00890	  0.51139	 -0.01709	  0.63527	709.92999	 21.60	
 15.293	-77.103	  0.57008	  0.31236	  0.15620	  0.00046	  0.52279	 -0.02169	  0.63779	709.90997	 21.60	
 15.293	-83.542	  0.56814	  0.28002	  0.18540	 -0.00251	  0.52730	 -0.02032	  0.63406	710.01001	 21.60	
 15.300	-90.000	  0.57014	  0.24872	  0.21737	 -0.00392	  0.53302	 -0.02140	  0.63529	709.87000	 21.60	
 15.293	-96.458	  0.57276	  0.21861	  0.24872	 -0.00447	  0.53443	 -0.02285	  0.63862	709.91998	 21.60	
 15.293	-102.897	  0.56874	  0.18660	  0.28004	 -0.00043	  0.52646	 -0.02163	  0.63347	709.89001	 21.60	
 15.297	-109.291	  0.57010	  0.15877	  0.31253	  0.00466	  0.51763	 -0.02322	  0.63429	709.89001	 21.60	
 15.304	-115.711	  0.57364	  0.13226	  0.34708	  0.01252	  0.50838	 -0.02524	  0.63786	709.84998	 21.60	
 15.309	-122.142	  0.57065	  0.10765	  0.37616	  0.02461	  0.48762	 -0.02311	  0.63407	709.91998	 21.60	
 15.305	-128.583	  0.56801	  0.08600	  0.40377	  0.03867	  0.46467	 -0.01925	  0.62895	709.96002	 21.60	
 15.299	-134.985	  0.57059	  0.06700	  0.43214	  0.05549	  0.44495	 -0.02034	  0.63405	709.96997	 21.60	
 15.293	-141.428	  0.56994	  0.04968	  0.45659	  0.07302	  0.41864	 -0.01697	  0.63289	709.91998	 21.60	
 15.288	-147.854	  0.57230	  0.03460	  0.48146	  0.09409	  0.39057	 -0.01855	  0.63490	709.92999	 21.60	
 15.300	-154.261	  0.57009	  0.02200	  0.49807	  0.11728	  0.35894	 -0.01962	  0.63470	709.85999	 21.60	
 15.307	-160.676	  0.56991	  0.01244	  0.51358	  0.14229	  0.32869	 -0.01498	  0.63520	709.94000	 21.60	
 15.291	-167.167	  0.57805	  0.00471	  0.53184	  0.17252	  0.29933	 -0.01460	  0.64157	709.85999	 21.60	
 15.298	-173.587	  0.56923	  0.00089	  0.53141	  0.19874	  0.26477	 -0.01292	  0.63391	709.94000	 21.60	
 15.300	180.000	  0.56922	 -0.00128	  0.53535	  0.22865	  0.23311	 -0.01013	  0.63373	709.87000	 21.60	
 17.000	180.000	  0.55198	 -0.03530	  0.55638	  0.21541	  0.22080	 -0.01826	  0.63510	709.94000	 21.60	
 16.990	-174.179	  0.55204	 -0.03235	  0.55049	  0.18581	  0.25025	 -0.01907	  0.63277	709.84998	 21.60	
 17.009	-168.383	  0.55421	 -0.02842	  0.54693	  0.15743	  0.28536	 -0.02140	  0.63669	709.77002	 21.60	
 17.000	-162.596	  0.54763	 -0.02033	  0.53084	  0.12872	  0.31359	 -0.02197	  0.62755	709.75000	 21.60	
 16.990	-156.759	  0.55784	 -0.01362	  0.52571	  0.10558	  0.34925	 -0.02343	  0.63767	709.83002	 21.60	
 16.995	-150.919	  0.55746	 -0.00328	  0.50783	  0.08022	  0.38055	 -0.02862	  0.63765	709.84998	 21.60	
 16.988	-145.161	  0.55888	  0.00996	  0.48873	  0.05861	  0.41160	 -0.02982	  0.63999	709.89001	 21.60	
 17.014	-139.343	  0.55139	  0.02593	  0.46028	  0.03971	  0.43373	 -0.02904	  0.62943	709.92999	 21.60	
 17.007	-133.546	  0.55181	  0.04312	  0.43459	  0.02278	  0.45921	 -0.02885	  0.63258	709.97998	 21.60	
 17.001	-127.699	  0.55185	  0.06106	  0.40699	  0.00582	  0.48248	 -0.03055	  0.63241	709.98999	 21.60	
 17.006	-121.937	  0.55091	  0.08331	  0.37678	 -0.00659	  0.50241	 -0.02983	  0.63219	709.95001	 21.60	
 17.002	-116.134	  0.55274	  0.10757	  0.34677	 -0.01628	  0.52051	 -0.03023	  0.63393	709.85999	 21.60	
 17.001	-110.310	  0.55679	  0.13369	  0.31620	 -0.02625	  0.53799	 -0.03080	  0.63732	709.91998	 21.60	
 16.988	-104.517	  0.55825	  0.16221	  0.28534	 -0.03119	  0.54982	 -0.02766	  0.64008	709.98999	 21.60	
 17.008	-98.662	  0.55405	  0.19079	  0.25217	 -0.03448	  0.55210	 -0.03091	  0.63580	709.90997	 21.60	
 16.996	-92.909	  0.55059	  0.22023	  0.21808	 -0.03601	  0.55199	 -0.02960	  0.63180	709.83002	 21.60	
 16.996	-87.091	  0.54751	  0.24989	  0.18731	 -0.03584	  0.54725	 -0.03016	  0.62969	709.79999	 21.60	
 17.012	-81.253	  0.55383	  0.28447	  0.15731	 -0.03493	  0.54892	 -0.02935	  0.63744	709.81000	 21.60	
 16.988	-75.483	  0.55072	  0.31508	  0.12962	 -0.02906	  0.53833	 -0.02593	  0.63524	709.71002	 21.60	
 17.001	-69.690	  0.54907	  0.34498	  0.10323	 -0.02177	  0.52448	 -0.02931	  0.63352	709.81000	 21.60	
 17.002	-63.866	  0.55213	  0.37880	  0.07783	 -0.01303	  0.51161	 -0.02734	  0.63726	709.89001	 21.60	
 17.006	-58.063	  0.55083	  0.40902	  0.05472	 -0.00151	  0.49166	 -0.02718	  0.63727	709.73999	 21.60	
 17.001	-52.301	  0.54918	  0.43580	  0.03511	  0.01298	  0.46839	 -0.02663	  0.63504	709.72998	 21.60	
 17.007	-46.454	  0.54756	  0.46089	  0.01611	  0.02887	  0.44195	 -0.02293	  0.63288	709.73999	 21.60	
 17.014	-40.657	  0.54788	  0.48657	 -0.00064	  0.04594	  0.41572	 -0.02196	  0.63502	709.72998	 21.60	
 16.988	-34.839	  0.54526	  0.50592	 -0.01577	  0.06534	  0.38410	 -0.01938	  0.63449	709.67999	 21.60	
 16.995	-29.081	  0.54560	  0.52581	 -0.02614	  0.09004	  0.35490	 -0.01834	  0.63465	709.82001	 21.60	
 16.990	-23.241	  0.54886	  0.54392	 -0.03662	  0.11588	  0.32374	 -0.01728	  0.63868	709.72998	 21.60	
 17.000	-17.404	  0.54548	  0.55209	 -0.04384	  0.13999	  0.29148	 -0.01474	  0.63559	709.72998	 21.60	
 17.009	-11.617	  0.54224	  0.55723	 -0.04607	  0.16988	  0.25679	 -0.01286	  0.63189	709.87000	 21.60	
 16.990	 -5.821	  0.54766	  0.56688	 -0.05223	  0.20065	  0.22633	 -0.01164	  0.63750	709.70001	 21.60	
 17.000	  0.000	  0.54119	  0.56221	 -0.05100	  0.22899	  0.19366	 -0.00692	  0.63230	709.78003	 21.60	
 16.990	  5.821	  0.54597	  0.56457	 -0.04973	  0.26273	  0.16599	 -0.00775	  0.63739	709.84003	 21.60	
 17.009	 11.617	  0.54440	  0.55603	 -0.04449	  0.29358	  0.13723	 -0.00678	  0.63708	709.90997	 21.60	
 17.000	 17.404	  0.54218	  0.54256	 -0.03701	  0.32354	  0.11021	 -0.00491	  0.63254	709.83002	 21.60	
 16.990	 23.241	  0.54582	  0.53183	 -0.02850	  0.35811	  0.08542	 -0.00231	  0.63708	709.85999	 21.60	
 16.995	 29.081	  0.54075	  0.51114	 -0.01827	  0.38640	  0.06107	 -0.00124	  0.63304	709.89001	 21.60	
 16.988	 34.839	  0.54705	  0.49648	 -0.00542	  0.41877	  0.04182	  0.00027	  0.63833	709.89001	 21.60	
 17.014	 40.657	  0.54712	  0.47334	  0.00937	  0.44759	  0.02148	 -0.00006	  0.63910	709.95001	 21.60	
 17.007	 46.454	  0.54319	  0.44474	  0.02670	  0.46985	  0.00418	 -0.00140	  0.63537	709.92999	 21.60	
 17.001	 52.301	  0.54089	  0.41492	  0.04626	  0.49147	 -0.00925	  0.00124	  0.63175	709.95001	 21.60	
 17.006	 58.063	  0.54074	  0.38685	  0.06771	  0.51153	 -0.02114	  0.00119	  0.63251	709.90002	 21.60	
 17.002	 63.866	  0.54746	  0.35732	  0.09263	  0.53538	 -0.03358	  0.00088	  0.64063	710.00000	 21.60	
 17.001	 69.690	  0.54607	  0.32540	  0.11713	  0.54683	 -0.03959	  0.00216	  0.63706	710.04999	 21.60	
 16.988	 75.483	  0.54317	  0.29184	  0.14370	  0.55404	 -0.04654	 -0.00195	  0.63407	709.96002	 21.60	
 17.012	 81.253	  0.54390	  0.26170	  0.17229	  0.56033	 -0.04816	 -0.00290	  0.63421	709.90997	 21.60	
 16.996	 87.091	  0.54851	  0.23307	  0.20502	  0.56680	 -0.04894	 -0.00216	  0.63864	709.97998	 21.60	
 16.996	 92.909	  0.54016	  0.19960	  0.23293	  0.55662	 -0.04699	 -0.00139	  0.62775	709.97998	 21.60	
 17.008	 98.662	  0.54698	  0.17205	  0.26694	  0.56011	 -0.04636	 -0.00252	  0.63505	709.91998	 21.60	
 16.988	104.517	  0.54713	  0.14337	  0.30039	  0.55090	 -0.04037	 -0.00396	  0.63555	709.96002	 21.60	
 17.001	110.310	  0.54907	  0.11774	  0.33173	  0.54089	 -0.03393	 -0.00450	  0.63741	709.84998	 21.60	
 17.002	116.134	  0.55362	  0.09237	  0.36546	  0.52918	 -0.02585	 -0.00780	  0.64382	709.90002	 21.60	
 17.006	121.937	  0.55236	  0.07103	  0.39487	  0.50877	 -0.01280	 -0.01179	  0.63972	709.96002	 21.60	
 17.001	127.699	  0.54787	  0.04962	  0.41960	  0.48314	 -0.00026	 -0.01240	  0.63404	709.87000	 21.60	
 17.007	133.546	  0.55018	  0.03120	  0.44853	  0.46049	  0.01710	 -0.01417	  0.63557	709.97998	 21.60	
 17.014	139.343	  0.55366	  0.01569	  0.47633	  0.43563	  0.03653	 -0.01560	  0.63954	709.98999	 21.60	
 16.988	145.161	  0.55515	  0.00202	  0.49912	  0.40767	  0.05793	 -0.01355	  0.64195	709.94000	 21.60	
 16.995	150.919	  0.55220	 -0.00992	  0.51489	  0.37585	  0.07891	 -0.01622	  0.63664	710.08002	 21.60	
 16.990	156.759	  0.55654	 -0.01886	  0.53451	  0.34575	  0.10659	 -0.01957	  0.64074	709.98999	 21.60	
 17.000	162.596	  0.55663	 -0.02569	  0.54637	  0.31342	  0.13306	 -0.01865	  0.64064	709.98999	 21.60	
 17.009	168.383	  0.55673	 -0.03085	  0.55411	  0.28217	  0.16051	 -0.01985	  0.63887	709.97998	 21.60	
 16.990	174.179	  0.55654	 -0.03420	  0.55749	  0.24903	  0.19020	 -0.02275	  0.64015	709.97998	 21.60	
 18.709	174.675	  0.53361	 -0.06731	  0.57399	  0.23183	  0.17615	 -0.03263	  0.63600	709.87000	 21.60	
 18.703	169.441	  0.53284	 -0.06466	  0.56829	  0.26297	  0.14588	 -0.03040	  0.63524	709.94000	 21.60	
 18.691	164.085	  0.53511	 -0.06178	  0.56346	  0.29574	  0.11876	 -0.03063	  0.63822	710.00000	 21.60	
 18.706	158.818	  0.53488	 -0.05492	  0.55340	  0.32843	  0.09118	 -0.02874	  0.63969	709.97998	 21.60	
 18.695	153.537	  0.53081	 -0.04605	  0.53532	  0.35723	  0.06632	 -0.02709	  0.63445	710.02002	 21.60	
 18.704	148.255	  0.53408	 -0.03646	  0.52044	  0.39097	  0.04241	 -0.02452	  0.63783	710.03003	 21.60	
 18.698	142.952	  0.52972	 -0.02448	  0.49684	  0.41778	  0.02362	 -0.02398	  0.63538	710.03003	 21.60	
 18.699	137.625	  0.52769	 -0.01135	  0.47341	  0.44426	  0.00416	 -0.02365	  0.63250	709.97998	 21.60	
 18.705	132.343	  0.52875	  0.00315	  0.45010	  0.47135	 -0.01534	 -0.02146	  0.63431	709.95001	 21.60	
 18.713	127.067	  0.53294	  0.02068	  0.42734	  0.49862	 -0.03035	 -0.01890	  0.64027	710.01001	 21.60	
 18.700	121.794	  0.53012	  0.04154	  0.39666	  0.51763	 -0.04279	 -0.01972	  0.63759	709.90002	 21.60	
 18.698	116.504	  0.52518	  0.06145	  0.36288	  0.53375	 -0.05509	 -0.01742	  0.63334	709.97998	 21.60	
 18.707	111.165	  0.53569	  0.08682	  0.33740	  0.56034	 -0.06616	 -0.01718	  0.64497	709.91998	 21.50	
 18.690	105.863	  0.52942	  0.11102	  0.30322	  0.56596	 -0.07199	 -0.01770	  0.63817	709.92999	 21.50	
 18.696	100.583	  0.52361	  0.13809	  0.26808	  0.57000	 -0.07546	 -0.01508	  0.63251	709.87000	 21.50	
 18.700	 95.309	  0.52078	  0.16655	  0.23549	  0.57318	 -0.07849	 -0.01499	  0.62992	709.90997	 21.50	
 18.700	 90.000	  0.52710	  0.19799	  0.20678	  0.58316	 -0.08142	 -0.01459	  0.63801	709.94000	 21.50	
 18.700	 84.691	  0.52747	  0.22969	  0.17586	  0.58253	 -0.08022	 -0.01252	  0.63807	709.89001	 21.60	
 18.696	 79.417	  0.52568	  0.26025	  0.14617	  0.57693	 -0.07962	 -0.01274	  0.63694	709.96997	 21.50	
 18.690	 74.137	  0.52953	  0.29436	  0.11923	  0.57325	 -0.07468	 -0.00998	  0.64031	710.03998	 21.60	
 18.707	 68.835	  0.52966	  0.32580	  0.09222	  0.56346	 -0.07023	 -0.00992	  0.63961	709.90997	 21.50	
 18.698	 63.496	  0.52572	  0.35695	  0.06759	  0.54610	 -0.06016	 -0.01001	  0.63626	710.01001	 21.50	
 18.700	 58.206	  0.52706	  0.38935	  0.04428	  0.52856	 -0.04916	 -0.01109	  0.63812	709.95001	 21.50	
 18.713	 52.933	  0.53078	  0.42026	  0.02320	  0.51188	 -0.03867	 -0.00988	  0.63986	709.95001	 21.50	
 18.705	 47.657	  0.52779	  0.44698	  0.00062	  0.48823	 -0.02759	 -0.01355	  0.63904	709.96997	 21.50	
 18.699	 42.375	  0.52423	  0.46992	 -0.01509	  0.46285	 -0.01351	 -0.01133	  0.63742	709.97998	 21.50	
 18.698	 37.048	  0.52557	  0.49600	 -0.03122	  0.43234	  0.00766	 -0.00962	  0.63685	710.01001	 21.50	
 18.704	 31.745	  0.52901	  0.52078	 -0.04805	  0.40695	  0.02363	 -0.01322	  0.64382	709.96997	 21.50	
 18.695	 26.463	  0.52503	  0.53516	 -0.05573	  0.37764	  0.04448	 -0.01209	  0.63865	710.00000	 21.50	
 18.706	 21.182	  0.52367	  0.55004	 -0.06453	  0.34453	  0.06944	 -0.01221	  0.63449	709.95001	 21.50	
 18.691	 15.915	  0.52907	  0.56740	 -0.07235	  0.31482	  0.09623	 -0.01369	  0.64085	709.91998	 21.50	
 18.703	 10.559	  0.52719	  0.57629	 -0.07915	  0.28188	  0.12064	 -0.01691	  0.63932	709.85999	 21.50	
 18.709	  5.325	  0.52668	  0.58199	 -0.08362	  0.24913	  0.14986	 -0.02209	  0.63934	710.02002	 21.50	
 18.700	  0.000	  0.52591	  0.58444	 -0.08490	  0.21620	  0.18105	 -0.01816	  0.63773	709.96002	 21.50	
 18.709	 -5.325	  0.52663	  0.58385	 -0.08609	  0.18521	  0.21152	 -0.01888	  0.63717	709.89001	 21.50	
 18.703	-10.559	  0.52818	  0.58095	 -0.08146	  0.15689	  0.24476	 -0.02391	  0.63793	709.90002	 21.50	
 18.691	-15.915	  0.52643	  0.57085	 -0.07618	  0.12719	  0.27718	 -0.02367	  0.63625	710.01001	 21.50	
 18.706	-21.182	  0.52374	  0.55719	 -0.06957	  0.10088	  0.30656	 -0.02488	  0.63259	709.92999	 21.50	
 18.695	-26.463	  0.52876	  0.54708	 -0.06181	  0.07594	  0.34245	 -0.02851	  0.63703	709.91998	 21.50	
 18.704	-31.745	  0.52662	  0.52853	 -0.05059	  0.05322	  0.37175	 -0.02719	  0.63424	709.89001	 21.50	
 18.698	-37.048	  0.52870	  0.51170	 -0.04106	  0.03160	  0.40348	 -0.02884	  0.63717	709.88000	 21.50	
 18.699	-42.375	  0.53124	  0.49023	 -0.02518	  0.01277	  0.43318	 -0.02981	  0.63857	709.95001	 21.50	
 18.705	-47.657	  0.52755	  0.46242	 -0.01056	 -0.00576	  0.45682	 -0.03103	  0.63382	709.98999	 21.50	
 18.713	-52.933	  0.53163	  0.43887	  0.00875	 -0.02004	  0.48477	 -0.03311	  0.63870	709.89001	 21.50	
 18.700	-58.206	  0.52803	  0.40782	  0.03009	 -0.03001	  0.50173	 -0.03468	  0.63358	709.90002	 21.50	
 18.698	-63.496	  0.52939	  0.37790	  0.05201	 -0.04164	  0.52181	 -0.03398	  0.63427	709.96002	 21.50	
 18.707	-68.835	  0.53227	  0.34785	  0.07658	 -0.05222	  0.54190	 -0.03207	  0.63575	709.88000	 21.50	
 18.690	-74.137	  0.52977	  0.31515	  0.10101	 -0.05921	  0.55050	 -0.03586	  0.63316	709.88000	 21.50	
 18.696	-79.417	  0.53593	  0.28597	  0.13080	 -0.06414	  0.56641	 -0.03962	  0.64002	709.90997	 21.50	
 18.700	-84.691	  0.53182	  0.25207	  0.15847	 -0.06699	  0.56826	 -0.03846	  0.63467	709.96997	 21.50	
 18.700	-90.000	  0.53595	  0.22293	  0.18872	 -0.06928	  0.57621	 -0.03748	  0.63817	709.94000	 21.50	
 18.700	-95.309	  0.53672	  0.19216	  0.22154	 -0.06745	  0.57488	 -0.03684	  0.63873	709.84998	 21.50	
 18.696	-100.583	  0.54017	  0.16395	  0.25426	 -0.06498	  0.57395	 -0.03658	  0.64136	709.90002	 21.50	
 18.690	-105.863	  0.53186	  0.13242	  0.28174	 -0.06072	  0.55785	 -0.03521	  0.63244	709.97998	 21.50	
 18.707	-111.165	  0.53291	  0.10694	  0.31506	 -0.05442	  0.54899	 -0.03728	  0.63411	709.89001	 21.50	
 18.698	-116.504	  0.53441	  0.08253	  0.34745	 -0.04531	  0.53503	 -0.03716	  0.63501	709.84003	 21.50	
 18.700	-121.794	  0.54023	  0.05956	  0.38301	 -0.03655	  0.52453	 -0.03604	  0.64208	709.72998	 21.50	
 18.713	-127.067	  0.53465	  0.03687	  0.40773	 -0.02574	  0.49997	 -0.03462	  0.63455	709.89001	 21.50	
 18.705	-132.343	  0.53401	  0.01791	  0.43594	 -0.01014	  0.47534	 -0.03483	  0.63370	709.90002	 21.50	
 18.699	-137.625	  0.53613	  0.00134	  0.46284	  0.00528	  0.45252	 -0.03657	  0.63701	709.87000	 21.50	
 18.698	-142.952	  0.53493	 -0.01574	  0.48657	  0.02332	  0.42392	 -0.03633	  0.63487	709.92999	 21.50	
 18.704	-148.255	  0.53894	 -0.03048	  0.51168	  0.04270	  0.39801	 -0.03677	  0.63886	709.83002	 21.50	
 18.695	-153.537	  0.53733	 -0.04017	  0.52971	  0.06586	  0.36733	 -0.03393	  0.63716	709.91998	 21.50	
 18.706	-158.818	  0.53904	 -0.05138	  0.54761	  0.08951	  0.33738	 -0.03445	  0.64074	709.87000	 21.50	
 18.691	-164.085	  0.53476	 -0.05742	  0.55565	  0.11389	  0.30284	 -0.03316	  0.63612	709.83002	 21.50	
 18.703	-169.441	  0.53426	 -0.06414	  0.56551	  0.14175	  0.27113	 -0.03345	  0.63534	709.78003	 21.50	
 18.709	-174.675	  0.53285	 -0.06741	  0.57102	  0.17066	  0.23856	 -0.03244	  0.63630	709.94000	 21.50	
 18.700	180.000	  0.53953	 -0.07059	  0.58088	  0.20152	  0.20999	 -0.03222	  0.64248	709.88000	 21.50	
 20.400	180.000	  0.51274	 -0.10266	  0.59085	  0.18170	  0.19225	 -0.03822	  0.63597	709.84003	 21.50	
 20.401	-175.153	  0.51535	 -0.10315	  0.58995	  0.15310	  0.22354	 -0.03869	  0.63841	709.87000	 21.50	
 20.407	-170.264	  0.51932	 -0.10048	  0.58836	  0.12502	  0.25791	 -0.03978	  0.64462	709.95001	 21.50	
 20.410	-165.423	  0.51463	 -0.09360	  0.57435	  0.09749	  0.28740	 -0.04107	  0.63760	709.90002	 21.50	
 20.392	-160.496	  0.51440	 -0.08532	  0.56133	  0.07187	  0.31935	 -0.04333	  0.63605	709.88000	 21.50	
 20.401	-155.705	  0.51597	 -0.07835	  0.54950	  0.04765	  0.35089	 -0.04265	  0.63865	709.84998	 21.50	
 20.405	-150.835	  0.51340	 -0.06788	  0.52834	  0.02444	  0.38003	 -0.04285	  0.63402	709.97998	 21.50	
 20.397	-145.903	  0.51098	 -0.05534	  0.50627	  0.00494	  0.40787	 -0.04251	  0.63176	709.88000	 21.50	
 20.392	-141.062	  0.51439	 -0.04176	  0.48628	 -0.01440	  0.43860	 -0.04479	  0.63621	709.92999	 21.50	
 20.396	-136.227	  0.51701	 -0.02748	  0.46518	 -0.03145	  0.46815	 -0.04358	  0.64094	709.85999	 21.50	
 20.408	-131.372	  0.51363	 -0.00806	  0.43521	 -0.04588	  0.49023	 -0.04578	  0.63480	709.88000	 21.50	
 20.410	-126.511	  0.51166	  0.01009	  0.40519	 -0.05844	  0.51112	 -0.04221	  0.63375	709.88000	 21.50	
 20.400	-121.604	  0.51157	  0.03228	  0.37494	 -0.06790	  0.53016	 -0.04111	  0.63226	709.88000	 21.50	
 20.403	-116.741	  0.51020	  0.05542	  0.34303	 -0.07848	  0.54650	 -0.04057	  0.63213	709.90002	 21.50	
 20.413	-111.900	  0.51438	  0.07953	  0.31444	 -0.08588	  0.56400	 -0.04096	  0.63653	709.88000	 21.50	
 20.398	-107.004	  0.51350	  0.10710	  0.28266	 -0.09185	  0.57481	 -0.03893	  0.63554	709.88000	 21.50	
 20.394	-102.132	  0.51558	  0.13296	  0.25108	 -0.09710	  0.58516	 -0.03770	  0.63902	709.77002	 21.50	
 20.403	-97.332	  0.50892	  0.16071	  0.21709	 -0.09783	  0.58305	 -0.03985	  0.63178	709.83002	 21.50	
 20.392	-92.440	  0.51340	  0.19162	  0.18615	 -0.10161	  0.59040	 -0.04037	  0.63866	709.88000	 21.50	
 20.392	-87.560	  0.51387	  0.22211	  0.15611	 -0.10186	  0.59028	 -0.04404	  0.64053	709.84003	 21.50	
 20.403	-82.668	  0.50895	  0.25167	  0.12669	 -0.09963	  0.58231	 -0.04474	  0.63453	709.83002	 21.50	
 20.394	-77.868	  0.51330	  0.28577	  0.10086	 -0.09672	  0.58076	 -0.04062	  0.64111	709.92999	 21.50	
 20.398	-72.996	  0.50836	  0.31433	  0.07069	 -0.09170	  0.56439	 -0.03982	  0.63556	709.88000	 21.50	
 20.413	-68.100	  0.51032	  0.34685	  0.04581	 -0.08566	  0.55220	 -0.03991	  0.63711	709.96997	 21.50	
 20.403	-63.259	  0.50793	  0.37680	  0.02253	 -0.07680	  0.53407	 -0.03958	  0.63596	709.96997	 21.50	
 20.400	-58.396	  0.50814	  0.40664	  0.00070	 -0.06617	  0.51558	 -0.03908	  0.63591	709.88000	 21.50	
 20.410	-53.489	  0.50904	  0.43689	 -0.01753	 -0.05136	  0.49368	 -0.04074	  0.63819	709.90997	 21.50	
 20.408	-48.628	  0.50899	  0.46549	 -0.03712	 -0.03987	  0.47136	 -0.03895	  0.63938	709.95001	 21.50	
 20.396	-43.773	  0.50489	  0.48696	 -0.05210	 -0.02296	  0.44186	 -0.03683	  0.63494	709.87000	 21.50	
 20.392	-38.938	  0.50472	  0.50969	 -0.06617	 -0.00469	  0.41297	 -0.03604	  0.63334	709.98999	 21.50	
 20.397	-34.097	  0.50596	  0.53169	 -0.07959	  0.01547	  0.38260	 -0.03463	  0.63631	709.91998	 21.50	
 20.405	-29.165	  0.50562	  0.55260	 -0.09160	  0.03583	  0.35365	 -0.03444	  0.63887	709.83002	 21.50	
 20.401	-24.295	  0.50545	  0.56669	 -0.09871	  0.05870	  0.32232	 -0.03648	  0.63749	709.90002	 21.50	
 20.392	-19.504	  0.50500	  0.57998	 -0.10578	  0.08491	  0.29102	 -0.03260	  0.63773	709.89001	 21.50	
 20.410	-14.577	  0.50283	  0.58702	 -0.11177	  0.11127	  0.25647	 -0.02990	  0.63402	709.88000	 21.40	
 20.407	 -9.736	  0.50355	  0.59440	 -0.11519	  0.13970	  0.22521	 -0.02877	  0.63787	709.90002	 21.40	
 20.401	 -4.847	  0.50017	  0.59292	 -0.11575	  0.16799	  0.19324	 -0.02745	  0.63215	709.84003	 21.50	
 20.400	  0.000	  0.50243	  0.59796	 -0.11811	  0.19785	  0.16350	 -0.02475	  0.63682	709.88000	 21.50	
 20.401	  4.847	  0.50107	  0.59358	 -0.11621	  0.22930	  0.13360	 -0.02437	  0.63493	709.84998	 21.50	
 20.407	  9.736	  0.50117	  0.58875	 -0.11292	  0.26156	  0.10501	 -0.02364	  0.63478	709.88000	 21.40	
 20.410	 14.577	  0.50046	  0.57919	 -0.10822	  0.29223	  0.07830	 -0.02294	  0.63460	709.95001	 21.50	
 20.392	 19.504	  0.49922	  0.56688	 -0.10145	  0.32395	  0.05185	 -0.02652	  0.63412	709.92999	 21.50	
 20.401	 24.295	  0.50444	  0.55704	 -0.09615	  0.35817	  0.02816	 -0.02230	  0.64038	709.94000	 21.50	
 20.405	 29.165	  0.50343	  0.53937	 -0.08705	  0.38768	  0.00576	 -0.02085	  0.63903	709.90997	 21.50	
 20.397	 34.097	  0.50130	  0.51620	 -0.07244	  0.41703	 -0.01397	 -0.02388	  0.63445	709.92999	 21.50	
 20.392	 38.938	  0.50088	  0.49279	 -0.05876	  0.44522	 -0.03294	 -0.02174	  0.63585	709.98999	 21.40	
 20.396	 43.773	  0.49954	  0.46779	 -0.04547	  0.46978	 -0.04945	 -0.02353	  0.63538	709.76001	 21.40	
 20.408	 48.628	  0.50186	  0.44258	 -0.02702	  0.49693	 -0.06393	 -0.01942	  0.63723	709.96002	 21.40	
 20.410	 53.489	  0.49980	  0.41182	 -0.00784	  0.51743	 -0.07506	 -0.01935	  0.63360	709.85999	 21.50	
 20.400	 58.396	  0.50215	  0.38362	  0.01464	  0.53945	 -0.08597	 -0.01867	  0.63617	709.90997	 21.40	
 20.403	 63.259	  0.49973	  0.35144	  0.03813	  0.55338	 -0.09345	 -0.01932	  0.63310	709.81000	 21.40	
 20.413	 68.100	  0.50110	  0.32090	  0.06227	  0.56826	 -0.10047	 -0.01898	  0.63384	709.90997	 21.40	
 20.398	 72.996	  0.50554	  0.29106	  0.08770	  0.58496	 -0.10988	 -0.01848	  0.63921	709.89001	 21.50	
 20.394	 77.868	  0.50522	  0.25954	  0.11610	  0.59196	 -0.11159	 -0.01890	  0.63833	709.91998	 21.40	
 20.403	 82.668	  0.50552	  0.22851	  0.14354	  0.59712	 -0.11471	 -0.01861	  0.64006	709.90997	 21.40	
 20.392	 87.560	  0.50351	  0.19479	  0.17220	  0.59715	 -0.11687	 -0.01985	  0.63574	709.85999	 21.40	
 20.392	 92.440	  0.50457	  0.16552	  0.20511	  0.59769	 -0.11544	 -0.02060	  0.63764	709.94000	 21.40	
 20.403	 97.332	  0.50297	  0.13557	  0.23435	  0.59045	 -0.11360	 -0.02016	  0.63362	709.91998	 21.40	
 20.394	102.132	  0.50408	  0.10981	  0.26656	  0.58426	 -0.10845	 -0.02162	  0.63570	709.90002	 21.40	
 20.398	107.004	  0.50372	  0.08476	  0.29802	  0.57319	 -0.10119	 -0.02086	  0.63147	709.79999	 21.40	
 20.413	111.900	  0.50415	  0.05842	  0.32898	  0.56089	 -0.09660	 -0.02434	  0.63346	709.85999	 21.40	
 20.403	116.741	  0.50355	  0.03686	  0.35988	  0.54434	 -0.08483	 -0.02626	  0.63165	709.83002	 21.40	
 20.400	121.604	  0.50427	  0.01561	  0.39066	  0.52637	 -0.07492	 -0.02739	  0.63308	709.94000	 21.40	
 20.410	126.511	  0.51388	 -0.00555	  0.42832	  0.51141	 -0.06305	 -0.03364	  0.64384	709.91998	 21.40	
 20.408	131.372	  0.50706	 -0.02336	  0.44851	  0.48176	 -0.04906	 -0.02806	  0.63358	709.89001	 21.40	
 20.396	136.227	  0.51022	 -0.03880	  0.47742	  0.45760	 -0.03124	 -0.03210	  0.63812	709.84003	 21.40	
 20.392	141.062	  0.50639	 -0.05322	  0.49684	  0.42745	 -0.01457	 -0.03085	  0.63258	709.88000	 21.40	
 20.397	145.903	  0.50756	 -0.06508	  0.51817	  0.39984	  0.00491	 -0.03416	  0.63495	709.89001	 21.40	
 20.405	150.835	  0.51106	 -0.07720	  0.54094	  0.37113	  0.02700	 -0.03329	  0.63729	709.84003	 21.40	
 20.401	155.705	  0.51172	 -0.08630	  0.55660	  0.33989	  0.05116	 -0.03150	  0.63775	709.85999	 21.40	
 20.392	160.496	  0.51108	 -0.09271	  0.56909	  0.30753	  0.07643	 -0.03538	  0.63556	709.84998	 21.40	
 20.410	165.423	  0.51156	 -0.09839	  0.57923	  0.27451	  0.10317	 -0.03541	  0.63643	709.81000	 21.40	
 20.407	170.264	  0.50981	 -0.10127	  0.58389	  0.24342	  0.12964	 -0.03658	  0.63499	709.69000	 21.40	
 20.401	175.153	  0.51377	 -0.10561	  0.59334	  0.21267	  0.15984	 -0.03684	  0.63981	709.87000	 21.40	
  0.141	 45.000	  0.63269	  0.29842	  0.28554	  0.29923	  0.28160	  0.04652	  0.63222	709.90002	 21.40	
  4.001	128.691	  0.62706	  0.24710	  0.32910	  0.35022	  0.22353	  0.04758	  0.63079	709.88000	 21.40	
  4.002	 76.995	  0.63168	  0.30785	  0.26646	  0.36958	  0.20944	  0.04899	  0.63510	709.98999	 21.40	
  4.002	 25.892	  0.63143	  0.36232	  0.21876	  0.32813	  0.24364	  0.04828	  0.63599	709.84998	 21.40	
  4.002	-25.892	  0.63325	  0.36395	  0.22103	  0.26510	  0.30793	  0.04274	  0.63635	709.73999	 21.40	
  4.002	-76.995	  0.62839	  0.31168	  0.26360	  0.22799	  0.34952	  0.03855	  0.62939	709.72998	 21.40	
  4.001	-128.691	  0.63354	  0.25527	  0.32818	  0.24119	  0.33900	  0.04073	  0.63613	709.96002	 21.40	
  4.000	180.000	  0.63221	  0.22756	  0.35873	  0.29076	  0.28176	  0.04243	  0.63498	709.87000	 21.40	
  8.000	180.000	  0.62522	  0.14574	  0.43250	  0.27818	  0.27206	  0.02736	  0.64048	709.91998	 21.40	
  7.991	-152.370	  0.62564	  0.16326	  0.41101	  0.21283	  0.34459	  0.02429	  0.63925	709.92999	 21.40	
  7.997	-124.550	  0.63056	  0.20852	  0.35711	  0.16695	  0.40470	  0.01886	  0.64253	709.90997	 21.40	
  8.006	-96.837	  0.62537	  0.27038	  0.28372	  0.14588	  0.42674	  0.01906	  0.63793	710.00000	 21.40	
  7.988	-69.228	  0.62317	  0.34234	  0.21291	  0.15365	  0.41493	  0.01968	  0.63697	710.03998	 21.40	
  7.997	-41.563	  0.61822	  0.40157	  0.15931	  0.18592	  0.36544	  0.02488	  0.63294	709.84003	 21.40	
  8.008	-13.821	  0.61774	  0.43858	  0.12996	  0.24554	  0.29579	  0.03297	  0.63599	709.88000	 21.40	
  8.008	 13.821	  0.61664	  0.43634	  0.13217	  0.31934	  0.22418	  0.03930	  0.63495	709.82001	 21.40	
  7.997	 41.563	  0.62495	  0.39999	  0.16556	  0.38983	  0.16924	  0.04281	  0.64168	709.96002	 21.40	
  7.988	 69.228	  0.61753	  0.33108	  0.21899	  0.43223	  0.13320	  0.04200	  0.63471	709.89001	 21.40	
  8.006	 96.837	  0.61787	  0.25877	  0.28776	  0.44123	  0.12417	  0.03832	  0.63374	709.98999	 21.40	
  7.997	124.550	  0.61489	  0.19441	  0.35705	  0.40819	  0.14873	  0.03421	  0.63002	709.90002	 21.40	
  7.991	152.370	  0.61815	  0.15786	  0.40914	  0.35046	  0.20122	  0.02952	  0.63268	709.96997	 21.40	
 12.009	161.059	  0.59484	  0.07082	  0.47655	  0.32919	  0.18036	  0.00721	  0.63213	709.92999	 21.40	
 12.013	142.081	  0.59876	  0.09537	  0.44234	  0.40388	  0.11957	  0.01127	  0.63774	709.91998	 21.40	
 12.006	123.113	  0.59713	  0.14122	  0.38117	  0.45983	  0.07693	  0.01796	  0.63749	709.91998	 21.40	
 12.007	104.200	  0.58997	  0.19998	  0.30642	  0.49153	  0.05152	  0.02379	  0.63144	709.87000	 21.40	
 11.989	 85.301	  0.59106	  0.27130	  0.23212	  0.50181	  0.04460	  0.02430	  0.63366	709.92999	 21.40	
 12.013	 66.294	  0.59281	  0.34698	  0.16349	  0.48502	  0.05571	  0.02631	  0.63745	709.83002	 21.40	
 12.012	 47.388	  0.59620	  0.41968	  0.10719	  0.44248	  0.08592	  0.02410	  0.64065	709.78998	 21.40	
 11.990	 28.440	  0.59142	  0.46783	  0.06884	  0.37560	  0.13445	  0.02276	  0.63691	709.90002	 21.40	
 11.991	  9.464	  0.59909	  0.50452	  0.04862	  0.30538	  0.20025	  0.01894	  0.64293	709.91998	 21.40	
 11.991	 -9.464	  0.59737	  0.50449	  0.04798	  0.22958	  0.27461	  0.01645	  0.63930	709.84998	 21.40	
 11.990	-28.440	  0.59677	  0.47814	  0.06608	  0.16164	  0.35017	  0.01010	  0.63737	709.79999	 21.40	
 12.012	-47.388	  0.59749	  0.43028	  0.10238	  0.11116	  0.41692	  0.00425	  0.63806	709.83002	 21.40	
 12.013	-66.294	  0.60364	  0.36599	  0.15556	  0.07705	  0.46853	 -0.00007	  0.64255	709.87000	 21.40	
 11.989	-85.301	  0.60195	  0.28968	  0.22415	  0.06187	  0.49075	 -0.00486	  0.63880	709.87000	 21.40	
 12.007	-104.200	  0.59975	  0.21634	  0.29684	  0.06507	  0.48419	 -0.00536	  0.63637	709.83002	 21.40	
 12.006	-123.113	  0.60325	  0.15425	  0.37179	  0.08736	  0.45568	 -0.00401	  0.63983	709.83002	 21.40	
 12.013	-142.081	  0.59967	  0.10611	  0.43332	  0.12772	  0.39871	  0.00051	  0.63467	709.85999	 21.40	
 12.009	-161.059	  0.60347	  0.07555	  0.47925	  0.18498	  0.33078	  0.00112	  0.63854	709.84998	 21.40	
 16.000	180.000	  0.55857	 -0.01363	  0.53729	  0.22301	  0.22630	 -0.01478	  0.62822	709.90002	 21.40	
 15.990	-165.604	  0.56325	 -0.00672	  0.52874	  0.15564	  0.30228	 -0.02125	  0.63479	709.94000	 21.40	
 16.002	-151.165	  0.56418	  0.01347	  0.49623	  0.09519	  0.37612	 -0.02010	  0.63549	710.00000	 21.40	
 16.002	-136.836	  0.56653	  0.05079	  0.44603	  0.04941	  0.44401	 -0.02336	  0.63667	709.95001	 21.40	
 15.995	-122.439	  0.56393	  0.09558	  0.37790	  0.01151	  0.49569	 -0.02586	  0.63394	710.00000	 21.40	
 15.993	-107.966	  0.56755	  0.15668	  0.30647	 -0.01019	  0.53209	 -0.02394	  0.63748	709.89001	 21.40	
 16.005	-93.629	  0.56338	  0.22599	  0.23039	 -0.01712	  0.54260	 -0.02855	  0.63500	709.96997	 21.40	
 15.992	-79.234	  0.56565	  0.29947	  0.15880	 -0.01442	  0.53661	 -0.02344	  0.63849	710.03998	 21.40	
 16.009	-64.774	  0.56170	  0.37207	  0.09546	  0.00318	  0.50362	 -0.02230	  0.63498	709.96002	 21.40	
 15.997	-50.364	  0.55642	  0.43839	  0.04407	  0.03528	  0.45223	 -0.01940	  0.63119	709.90002	 21.40	
 15.997	-36.045	  0.56554	  0.50218	  0.00488	  0.07798	  0.39669	 -0.01624	  0.64368	710.04999	 21.40	
 16.000	-21.597	  0.56010	  0.53729	 -0.01742	  0.13739	  0.32029	 -0.01062	  0.63776	710.04999	 21.40	
 16.003	 -7.169	  0.56173	  0.55695	 -0.03098	  0.20360	  0.24409	 -0.00851	  0.64045	710.01001	 21.40	
 16.003	  7.169	  0.55961	  0.55346	 -0.02860	  0.27672	  0.17207	 -0.00116	  0.63931	709.94000	 21.40	
 16.000	 21.597	  0.55594	  0.52679	 -0.01450	  0.35058	  0.10582	  0.00247	  0.63486	709.96002	 21.40	
 15.997	 36.045	  0.55775	  0.48517	  0.01335	  0.42273	  0.05358	  0.00385	  0.63891	709.98999	 21.40	
 15.997	 50.364	  0.55722	  0.42537	  0.05467	  0.48188	  0.01258	  0.00681	  0.63775	710.01001	 21.40	
 16.009	 64.774	  0.55683	  0.35458	  0.10779	  0.52549	 -0.01395	  0.00466	  0.63728	710.00000	 21.40	
 15.992	 79.234	  0.56022	  0.28117	  0.17507	  0.55143	 -0.02838	  0.00502	  0.63912	709.90997	 21.40	
 16.005	 93.629	  0.55800	  0.20698	  0.24589	  0.55371	 -0.03051	  0.00052	  0.63768	710.03998	 21.40	
 15.993	107.966	  0.55425	  0.13894	  0.31797	  0.53125	 -0.01772	  0.00238	  0.63237	709.97998	 21.40	
 15.995	122.439	  0.55808	  0.08268	  0.39257	  0.49448	  0.00569	 -0.00409	  0.63464	710.03998	 21.40	
 16.002	136.836	  0.56321	  0.03983	  0.45918	  0.44237	  0.04579	 -0.00632	  0.63640	709.95001	 21.40	
 16.002	151.165	  0.56075	  0.00785	  0.50451	  0.37292	  0.09469	 -0.00913	  0.63526	709.92999	 21.40	
 15.990	165.604	  0.56572	 -0.01086	  0.53794	  0.30070	  0.15730	 -0.01436	  0.63813	709.90002	 21.40	
 20.003	168.362	  0.51767	 -0.09118	  0.58058	  0.25963	  0.12502	 -0.03329	  0.63721	709.88000	 21.40	
 20.008	156.764	  0.51658	 -0.07854	  0.55666	  0.33446	  0.06250	 -0.03417	  0.63697	709.89001	 21.40	
 20.000	145.147	  0.51800	 -0.05657	  0.51897	  0.40750	  0.00969	 -0.03171	  0.63998	709.97998	 21.40	
 19.995	133.545	  0.51417	 -0.02434	  0.46210	  0.47099	 -0.03451	 -0.02880	  0.63672	709.92999	 21.40	
 20.009	121.926	  0.51414	  0.01945	  0.39541	  0.52594	 -0.06787	 -0.02434	  0.63759	709.94000	 21.40	
 20.005	110.327	  0.51468	  0.07157	  0.32479	  0.56777	 -0.09192	 -0.02115	  0.64078	709.94000	 21.40	
 19.989	 98.733	  0.50922	  0.13371	  0.24828	  0.58537	 -0.10205	 -0.01866	  0.63344	710.01001	 21.40	
 19.999	 87.075	  0.50745	  0.20241	  0.17398	  0.59246	 -0.10651	 -0.01790	  0.63375	709.92999	 21.40	
 19.992	 75.457	  0.50996	  0.27807	  0.10732	  0.58441	 -0.10228	 -0.01777	  0.63823	709.98999	 21.40	
 20.009	 63.844	  0.50851	  0.35148	  0.04635	  0.55607	 -0.08738	 -0.01613	  0.63637	709.96002	 21.40	
 19.989	 52.269	  0.50914	  0.42249	 -0.00327	  0.51261	 -0.06338	 -0.01704	  0.63541	709.88000	 21.40	
 19.999	 40.602	  0.50696	  0.48376	 -0.04568	  0.45462	 -0.02895	 -0.01959	  0.63607	709.84998	 21.40	
 20.004	 29.051	  0.50790	  0.53542	 -0.07630	  0.38749	  0.01510	 -0.01918	  0.63620	709.89001	 21.40	
 20.005	 17.433	  0.50850	  0.57284	 -0.09965	  0.31396	  0.06805	 -0.02168	  0.63852	709.89001	 21.40	
 20.006	  5.780	  0.50817	  0.59141	 -0.10809	  0.23989	  0.13254	 -0.02300	  0.63805	709.96002	 21.40	
 20.006	 -5.780	  0.50686	  0.59298	 -0.10907	  0.16717	  0.20295	 -0.02327	  0.63539	709.97998	 21.40	
 20.005	-17.433	  0.51049	  0.58139	 -0.10083	  0.10188	  0.27850	 -0.02883	  0.63839	709.92999	 21.40	
 20.004	-29.051	  0.51341	  0.55140	 -0.08354	  0.04221	  0.35546	 -0.03328	  0.63967	709.81000	 21.40	
 19.999	-40.602	  0.50788	  0.49842	 -0.05319	 -0.00404	  0.42039	 -0.03752	  0.63060	709.90002	 21.40	
 19.989	-52.269	  0.51316	  0.44260	 -0.01472	 -0.04104	  0.48517	 -0.03929	  0.63549	709.89001	 21.40	
 20.009	-63.844	  0.51913	  0.37701	  0.03435	 -0.06898	  0.53840	 -0.03840	  0.64116	709.96002	 21.40	
 19.992	-75.457	  0.51523	  0.30110	  0.09154	 -0.08525	  0.56703	 -0.03711	  0.63596	709.90002	 21.40	
 19.999	-87.075	  0.51975	  0.22918	  0.15844	 -0.09428	  0.58621	 -0.03858	  0.63900	709.90997	 21.40	
 19.989	-98.733	  0.51815	  0.15790	  0.23057	 -0.09234	  0.58254	 -0.03825	  0.63638	709.84998	 21.40	
 20.005	-110.327	  0.51825	  0.09375	  0.30428	 -0.08076	  0.56309	 -0.03906	  0.63466	709.90002	 21.40	
 20.009	-121.926	  0.52010	  0.03656	  0.37952	 -0.06141	  0.52797	 -0.03952	  0.63662	709.95001	 21.40	
 19.995	-133.545	  0.51752	 -0.00417	  0.44384	 -0.02722	  0.47563	 -0.04205	  0.62958	709.96002	 21.40	
 20.000	-145.147	  0.52463	 -0.04449	  0.50710	  0.00986	  0.41858	 -0.04290	  0.64030	709.94000	 21.40	
 20.008	-156.764	  0.51758	 -0.06985	  0.54430	  0.06102	  0.34220	 -0.03871	  0.63162	709.96002	 21.40	
 20.003	-168.362	  0.52209	 -0.08769	  0.57804	  0.11970	  0.27141	 -0.03526	  0.63999	709.94000	 21.40	
 20.000	180.000	  0.51956	 -0.09469	  0.58842	  0.18691	  0.19689	 -0.03215	  0.63839	709.91998	 21.40	
