FileType=PCF
NHL=14
Date=08/25/17	09:06:24
Facility=APL
Serial=16328-4
Customer=NASA
NP=6
Mach=0.050000
Calibration=1:1
CalPts=490
TstPts=95
PortNumbering=AP Standard
Units=Torr C m/s kg/m^3 deg mm 
Theta[deg]	Phi[deg]	P1[Torr]	P2[Torr]	P3[Torr]	P4[Torr]	P5[Torr]	P6[Torr]	Pt[Torr]	Ps[Abs,Torr]	Ts[C]	
  0.000	  0.000	  1.27885	  0.71698	  0.71617	  0.71604	  0.72338	  0.00780	  1.26997	708.01801	 24.50	
  1.691	128.401	  1.28438	  0.68364	  0.74261	  0.74609	  0.68757	  0.00745	  1.27561	708.11603	 24.50	
  1.692	 77.194	  1.28699	  0.72741	  0.70250	  0.75824	  0.67848	  0.00693	  1.27786	708.11102	 24.50	
  1.699	 26.182	  1.28023	  0.76008	  0.66375	  0.72553	  0.69936	  0.00648	  1.27100	708.15100	 24.50	
  1.699	-26.182	  1.28067	  0.75979	  0.66170	  0.67971	  0.74478	  0.00712	  1.27185	708.08301	 24.50	
  1.692	-77.194	  1.27822	  0.72004	  0.69300	  0.65123	  0.77537	  0.00663	  1.26987	708.06598	 24.50	
  1.691	-128.401	  1.28052	  0.67644	  0.74147	  0.66168	  0.76533	  0.00636	  1.27131	708.03802	 24.50	
  1.700	180.000	  1.28372	  0.66268	  0.76475	  0.70570	  0.72189	  0.00707	  1.27388	707.96399	 24.50	
  3.400	180.000	  1.27383	  0.59210	  0.82186	  0.69409	  0.71307	  0.00401	  1.26714	708.03003	 24.50	
  3.388	-152.325	  1.27733	  0.60397	  0.80954	  0.64306	  0.77078	  0.00461	  1.27130	708.00201	 24.50	
  3.397	-124.529	  1.27589	  0.63635	  0.76882	  0.60283	  0.81437	  0.00253	  1.27061	708.02100	 24.50	
  3.399	-96.763	  1.27542	  0.68688	  0.71408	  0.58412	  0.83569	  0.00275	  1.26958	708.14502	 24.50	
  3.394	-69.283	  1.27590	  0.74331	  0.65929	  0.59079	  0.82801	  0.00262	  1.26998	708.03003	 24.50	
  3.400	-41.398	  1.28138	  0.79554	  0.61863	  0.62222	  0.79712	  0.00203	  1.27624	707.95898	 24.50	
  3.401	-14.021	  1.27596	  0.82117	  0.59248	  0.66506	  0.74326	  0.00276	  1.27071	707.98102	 24.50	
  3.401	 14.021	  1.27229	  0.82014	  0.59095	  0.71900	  0.68397	  0.00315	  1.26545	707.97101	 24.50	
  3.400	 41.398	  1.27634	  0.79591	  0.61618	  0.77267	  0.63889	  0.00491	  1.26912	708.09100	 24.50	
  3.394	 69.283	  1.28069	  0.75019	  0.66191	  0.80923	  0.61341	  0.00451	  1.27306	707.91699	 24.50	
  3.399	 96.763	  1.27681	  0.69309	  0.71441	  0.81462	  0.60641	  0.00479	  1.26977	707.86401	 24.50	
  3.397	124.529	  1.27777	  0.64369	  0.76752	  0.79392	  0.62371	  0.00423	  1.26992	707.88599	 24.50	
  3.388	152.325	  1.27493	  0.60779	  0.80623	  0.74908	  0.66014	  0.00470	  1.26773	708.04602	 24.50	
  5.099	161.165	  1.27192	  0.53634	  0.87085	  0.74646	  0.64859	 -0.00118	  1.27025	708.06097	 24.50	
  5.109	142.013	  1.27605	  0.56454	  0.84233	  0.80368	  0.60025	 -0.00182	  1.27386	707.88800	 24.50	
  5.095	123.033	  1.27210	  0.60421	  0.79261	  0.84245	  0.56274	 -0.00109	  1.26929	707.84399	 24.50	
  5.105	104.191	  1.27607	  0.65766	  0.73860	  0.87078	  0.54226	 -0.00070	  1.27292	707.89398	 24.50	
  5.093	 85.207	  1.27353	  0.71523	  0.67681	  0.87361	  0.53722	 -0.00112	  1.26984	707.88397	 24.50	
  5.104	 66.290	  1.27564	  0.77507	  0.62215	  0.85904	  0.54984	 -0.00140	  1.27284	707.81500	 24.50	
  5.094	 47.331	  1.27163	  0.82467	  0.57354	  0.82042	  0.57775	 -0.00199	  1.26823	707.92499	 24.50	
  5.089	 28.397	  1.27304	  0.86337	  0.54135	  0.77261	  0.62120	 -0.00304	  1.27088	707.87500	 24.50	
  5.096	  9.576	  1.27274	  0.88327	  0.52447	  0.71532	  0.67575	 -0.00437	  1.27058	707.87201	 24.50	
  5.096	 -9.576	  1.27069	  0.88067	  0.52379	  0.65380	  0.73520	 -0.00433	  1.26925	708.01801	 24.50	
  5.089	-28.397	  1.27343	  0.86112	  0.54245	  0.60300	  0.79434	 -0.00362	  1.27319	708.08502	 24.50	
  5.094	-47.331	  1.26823	  0.81737	  0.57363	  0.55642	  0.84161	 -0.00400	  1.26941	707.98700	 24.50	
  5.104	-66.290	  1.27351	  0.76760	  0.62293	  0.52808	  0.88103	 -0.00401	  1.27618	707.94598	 24.50	
  5.093	-85.207	  1.26947	  0.70638	  0.67690	  0.51382	  0.89457	 -0.00319	  1.27129	708.02899	 24.50	
  5.105	-104.191	  1.27130	  0.64776	  0.73899	  0.51817	  0.89055	 -0.00363	  1.27305	707.85498	 24.50	
  5.095	-123.033	  1.27029	  0.59615	  0.79543	  0.54085	  0.86416	 -0.00232	  1.27181	707.96198	 24.50	
  5.109	-142.013	  1.27015	  0.55581	  0.84169	  0.57848	  0.81992	 -0.00235	  1.27185	708.08801	 24.50	
  5.099	-161.165	  1.27089	  0.53205	  0.87240	  0.62909	  0.76495	 -0.00209	  1.27203	707.97302	 24.50	
  5.100	180.000	  1.27565	  0.52696	  0.88608	  0.68883	  0.70767	 -0.00087	  1.27584	707.89099	 24.50	
  6.800	180.000	  1.26275	  0.45483	  0.93951	  0.67532	  0.69389	 -0.00861	  1.27293	708.00500	 24.50	
  6.796	-166.229	  1.26107	  0.45898	  0.93149	  0.61780	  0.75198	 -0.00800	  1.27142	707.88000	 24.50	
  6.808	-152.311	  1.25664	  0.47434	  0.90695	  0.56254	  0.80749	 -0.00875	  1.26823	708.04303	 24.50	
  6.795	-138.383	  1.25674	  0.50359	  0.87055	  0.51639	  0.86028	 -0.00914	  1.26991	707.90302	 24.50	
  6.792	-124.591	  1.25417	  0.54150	  0.82244	  0.47884	  0.90072	 -0.00891	  1.26811	707.86401	 24.50	
  6.787	-110.754	  1.25723	  0.59180	  0.76923	  0.45619	  0.93181	 -0.01108	  1.27161	708.01202	 24.50	
  6.800	-96.985	  1.25661	  0.64650	  0.71025	  0.44276	  0.94683	 -0.01113	  1.27111	707.94800	 24.50	
  6.800	-83.015	  1.25362	  0.70495	  0.64861	  0.44068	  0.94472	 -0.01039	  1.26746	707.98102	 24.50	
  6.787	-69.246	  1.25898	  0.76680	  0.59593	  0.45542	  0.93312	 -0.01095	  1.27270	707.96503	 24.50	
  6.792	-55.409	  1.25673	  0.81948	  0.54509	  0.47806	  0.90092	 -0.01237	  1.26848	707.88000	 24.50	
  6.795	-41.617	  1.25678	  0.86751	  0.50412	  0.51434	  0.85838	 -0.01085	  1.26859	707.99597	 24.50	
  6.808	-27.689	  1.25982	  0.90781	  0.47380	  0.56092	  0.80725	 -0.01157	  1.27124	707.89502	 24.50	
  6.796	-13.771	  1.26562	  0.93481	  0.45837	  0.61697	  0.75307	 -0.01125	  1.27617	707.91498	 24.50	
  6.800	  0.000	  1.25684	  0.93731	  0.44860	  0.66817	  0.68927	 -0.01156	  1.26579	708.00201	 24.50	
  6.796	 13.771	  1.25932	  0.93226	  0.45570	  0.72805	  0.63315	 -0.01020	  1.26704	707.91998	 24.50	
  6.808	 27.689	  1.25936	  0.91076	  0.47295	  0.78513	  0.57987	 -0.00864	  1.26520	707.85602	 24.40	
  6.795	 41.617	  1.26573	  0.87912	  0.50604	  0.83966	  0.53835	 -0.00811	  1.27099	707.96997	 24.50	
  6.792	 55.409	  1.26351	  0.83149	  0.54583	  0.88038	  0.50177	 -0.00689	  1.26850	707.92798	 24.40	
  6.787	 69.246	  1.26739	  0.78043	  0.59641	  0.91366	  0.47934	 -0.00709	  1.27161	708.09497	 24.40	
  6.800	 83.015	  1.26361	  0.71978	  0.64945	  0.92728	  0.46479	 -0.00786	  1.26910	707.84399	 24.40	
  6.800	 96.985	  1.26453	  0.66102	  0.70952	  0.92888	  0.46579	 -0.00626	  1.26963	707.92297	 24.40	
  6.787	110.754	  1.26202	  0.60480	  0.76660	  0.91164	  0.47730	 -0.00733	  1.26750	707.91998	 24.40	
  6.792	124.591	  1.26446	  0.55684	  0.82298	  0.88506	  0.50305	 -0.00842	  1.27012	707.88300	 24.40	
  6.795	138.383	  1.26056	  0.51413	  0.86881	  0.84021	  0.53707	 -0.00683	  1.26688	708.01801	 24.50	
  6.808	152.311	  1.26378	  0.48360	  0.90815	  0.79248	  0.58202	 -0.00799	  1.27110	707.91699	 24.40	
  6.796	166.229	  1.25854	  0.46247	  0.92752	  0.73233	  0.63243	 -0.00818	  1.26589	707.95697	 24.40	
  8.491	168.704	  1.24484	  0.38928	  0.98104	  0.71986	  0.61494	 -0.01726	  1.26728	708.02698	 24.40	
  8.502	157.493	  1.24334	  0.40560	  0.96040	  0.77730	  0.55996	 -0.01540	  1.26462	707.93402	 24.40	
  8.494	146.194	  1.25035	  0.43357	  0.93289	  0.83647	  0.51341	 -0.01510	  1.26953	708.11102	 24.40	
  8.495	135.039	  1.24737	  0.46648	  0.89003	  0.88424	  0.46928	 -0.01611	  1.26699	707.95099	 24.40	
  8.487	123.723	  1.24873	  0.51111	  0.83994	  0.92660	  0.43590	 -0.01678	  1.26771	707.95398	 24.40	
  8.492	112.575	  1.25343	  0.56225	  0.78748	  0.95991	  0.41266	 -0.01593	  1.27248	707.95001	 24.40	
  8.510	101.220	  1.24891	  0.61607	  0.72386	  0.97522	  0.39530	 -0.01511	  1.26866	707.97900	 24.40	
  8.500	 90.000	  1.25263	  0.67737	  0.66522	  0.98369	  0.39190	 -0.01543	  1.26997	707.98700	 24.40	
  8.510	 78.780	  1.25123	  0.73740	  0.60437	  0.97616	  0.39476	 -0.01633	  1.26985	708.00500	 24.40	
  8.492	 67.425	  1.25124	  0.79627	  0.54773	  0.95490	  0.40981	 -0.01636	  1.26985	707.92798	 24.40	
  8.487	 56.277	  1.24920	  0.85032	  0.49723	  0.92233	  0.43326	 -0.01634	  1.26761	707.97900	 24.40	
  8.495	 44.961	  1.24933	  0.90037	  0.45442	  0.88047	  0.46749	 -0.01734	  1.26768	707.87799	 24.40	
  8.494	 33.806	  1.24980	  0.94101	  0.42193	  0.83096	  0.51044	 -0.01984	  1.26948	708.04602	 24.40	
  8.502	 22.507	  1.24818	  0.96962	  0.39646	  0.77426	  0.55937	 -0.01933	  1.26813	708.08502	 24.40	
  8.491	 11.296	  1.25092	  0.98973	  0.38315	  0.71680	  0.61645	 -0.02003	  1.27121	708.09698	 24.40	
  8.500	  0.000	  1.24869	  0.99387	  0.37793	  0.65492	  0.67601	 -0.02131	  1.27159	707.90900	 24.40	
  8.491	-11.296	  1.24948	  0.98710	  0.38382	  0.59707	  0.73794	 -0.02023	  1.27338	707.92798	 24.40	
  8.502	-22.507	  1.24262	  0.96252	  0.39679	  0.53894	  0.79335	 -0.01949	  1.26730	708.04102	 24.40	
  8.494	-33.806	  1.24309	  0.93064	  0.42276	  0.48907	  0.85152	 -0.01985	  1.26869	708.10498	 24.40	
  8.495	-44.961	  1.24009	  0.88720	  0.45589	  0.44577	  0.89967	 -0.02115	  1.26723	708.16998	 24.40	
  8.487	-56.277	  1.24343	  0.83766	  0.50073	  0.41398	  0.94363	 -0.02142	  1.27140	708.04401	 24.40	
  8.492	-67.425	  1.23963	  0.77992	  0.54875	  0.38822	  0.97145	 -0.02096	  1.26813	708.12201	 24.40	
  8.510	-78.780	  1.24358	  0.72186	  0.60700	  0.37358	  0.99518	 -0.02064	  1.27273	708.10498	 24.40	
  8.500	-90.000	  1.24029	  0.65909	  0.66442	  0.36738	  0.99865	 -0.02075	  1.26984	708.11102	 24.40	
  8.510	-101.220	  1.23883	  0.59952	  0.72519	  0.37273	  0.99217	 -0.02038	  1.26968	708.05701	 24.40	
  8.492	-112.575	  1.24156	  0.54591	  0.78666	  0.38948	  0.97446	 -0.01917	  1.27139	708.10602	 24.40	
  8.487	-123.723	  1.24314	  0.49790	  0.84339	  0.41603	  0.94419	 -0.01749	  1.27318	708.05298	 24.40	
  8.495	-135.039	  1.23788	  0.45410	  0.88993	  0.44772	  0.89990	 -0.01746	  1.26732	707.98700	 24.40	
  8.494	-146.194	  1.23620	  0.42052	  0.92859	  0.48973	  0.84789	 -0.01725	  1.26495	707.86298	 24.40	
  8.502	-157.493	  1.24151	  0.39869	  0.96333	  0.54263	  0.79366	 -0.01658	  1.26878	708.23297	 24.40	
  8.491	-168.704	  1.24071	  0.38535	  0.98077	  0.59746	  0.73406	 -0.01587	  1.26682	708.13098	 24.40	
  8.500	180.000	  1.24185	  0.38208	  0.98589	  0.65617	  0.67293	 -0.01653	  1.26588	708.07501	 24.40	
 10.200	180.000	  1.22888	  0.31003	  1.04074	  0.64099	  0.65738	 -0.02616	  1.27299	708.07202	 24.40	
 10.191	-170.497	  1.22428	  0.31232	  1.03255	  0.57999	  0.71708	 -0.02563	  1.26978	708.04999	 24.40	
 10.210	-161.034	  1.22084	  0.32210	  1.01505	  0.52189	  0.77645	 -0.02565	  1.26897	707.93201	 24.40	
 10.194	-151.526	  1.22115	  0.34236	  0.98931	  0.46900	  0.83674	 -0.02562	  1.26961	707.99500	 24.40	
 10.190	-142.105	  1.21831	  0.36890	  0.95128	  0.42106	  0.89030	 -0.02563	  1.26841	707.96399	 24.40	
 10.215	-132.646	  1.21853	  0.40336	  0.90784	  0.38040	  0.93939	 -0.02636	  1.26945	708.09100	 24.40	
 10.203	-123.092	  1.21715	  0.44573	  0.85544	  0.34705	  0.97955	 -0.02764	  1.26858	707.90900	 24.40	
 10.192	-113.678	  1.21544	  0.49488	  0.79643	  0.32129	  1.00940	 -0.02842	  1.26851	707.95001	 24.40	
 10.208	-104.249	  1.21979	  0.54947	  0.73926	  0.30400	  1.03510	 -0.03103	  1.27183	707.93201	 24.40	
 10.210	-94.801	  1.22000	  0.60849	  0.67877	  0.29523	  1.04677	 -0.03089	  1.27226	707.97699	 24.40	
 10.210	-85.199	  1.21612	  0.66783	  0.61360	  0.29377	  1.04263	 -0.03068	  1.26680	707.98199	 24.40	
 10.208	-75.751	  1.22354	  0.73309	  0.55859	  0.30415	  1.03726	 -0.03183	  1.27443	708.01300	 24.40	
 10.192	-66.322	  1.22096	  0.79253	  0.50271	  0.32161	  1.01223	 -0.03197	  1.27092	708.03003	 24.40	
 10.203	-56.908	  1.22580	  0.85294	  0.45330	  0.34675	  0.98368	 -0.03194	  1.27463	707.97101	 24.40	
 10.215	-47.354	  1.21851	  0.90053	  0.40612	  0.37719	  0.93617	 -0.03142	  1.26606	708.10797	 24.50	
 10.190	-37.895	  1.22237	  0.94817	  0.37204	  0.41854	  0.89062	 -0.02860	  1.27007	708.08899	 24.40	
 10.194	-28.474	  1.22420	  0.98660	  0.34278	  0.46497	  0.83657	 -0.02898	  1.27007	708.10498	 24.50	
 10.210	-18.966	  1.22423	  1.01456	  0.32118	  0.51783	  0.77717	 -0.02806	  1.26976	708.01599	 24.50	
 10.191	 -9.503	  1.22878	  1.03431	  0.30920	  0.57557	  0.71774	 -0.02980	  1.27161	707.98798	 24.40	
 10.200	  0.000	  1.22416	  1.03754	  0.30378	  0.63244	  0.65370	 -0.03098	  1.26566	708.08301	 24.40	
 10.191	  9.503	  1.22959	  1.03679	  0.30855	  0.69662	  0.59510	 -0.03048	  1.26945	708.03497	 24.50	
 10.210	 18.966	  1.23812	  1.02842	  0.32314	  0.76203	  0.54210	 -0.02807	  1.27676	708.01202	 24.50	
 10.194	 28.474	  1.23576	  1.00033	  0.34264	  0.81901	  0.48784	 -0.02702	  1.27305	707.98199	 24.50	
 10.190	 37.895	  1.23551	  0.96480	  0.37114	  0.87360	  0.44083	 -0.02682	  1.27337	707.96503	 24.50	
 10.215	 47.354	  1.23055	  0.91827	  0.40557	  0.91975	  0.39921	 -0.02594	  1.26775	708.01300	 24.50	
 10.203	 56.908	  1.23711	  0.87114	  0.45215	  0.96547	  0.36907	 -0.02395	  1.27385	708.07202	 24.50	
 10.192	 66.322	  1.23716	  0.81488	  0.50246	  0.99725	  0.34510	 -0.02360	  1.27407	708.04602	 24.50	
 10.208	 75.751	  1.23700	  0.75509	  0.55709	  1.02020	  0.32693	 -0.02498	  1.27262	708.18201	 24.50	
 10.210	 85.199	  1.23557	  0.69324	  0.61511	  1.03119	  0.31927	 -0.02546	  1.27304	708.15302	 24.50	
 10.210	 94.801	  1.23775	  0.63165	  0.67923	  1.03378	  0.31941	 -0.02482	  1.27540	707.98199	 24.50	
 10.208	104.249	  1.23847	  0.57312	  0.74165	  1.02467	  0.32784	 -0.02547	  1.27666	707.97302	 24.50	
 10.192	113.678	  1.23824	  0.51817	  0.80128	  1.00195	  0.34557	 -0.02499	  1.27399	707.97302	 24.50	
 10.203	123.092	  1.23459	  0.46637	  0.85705	  0.96844	  0.36916	 -0.02736	  1.27231	707.98999	 24.50	
 10.215	132.646	  1.23544	  0.42221	  0.90982	  0.92877	  0.40113	 -0.02730	  1.27267	707.88599	 24.50	
 10.190	142.105	  1.23229	  0.38418	  0.95275	  0.87872	  0.44099	 -0.02542	  1.27134	708.09198	 24.50	
 10.194	151.526	  1.23170	  0.35408	  0.98929	  0.82351	  0.48795	 -0.02532	  1.27127	708.08502	 24.50	
 10.210	161.034	  1.23663	  0.33259	  1.02234	  0.76863	  0.54273	 -0.02551	  1.27803	708.06702	 24.50	
 10.191	170.497	  1.22402	  0.31515	  1.02886	  0.70045	  0.59356	 -0.02575	  1.26580	707.92297	 24.50	
 11.899	171.783	  1.20071	  0.24184	  1.07423	  0.67970	  0.57148	 -0.03723	  1.26609	707.83301	 24.50	
 11.890	163.610	  1.20527	  0.25490	  1.06219	  0.74259	  0.51621	 -0.03565	  1.26966	708.04303	 24.50	
 11.889	155.445	  1.20829	  0.27532	  1.04023	  0.80399	  0.46346	 -0.03533	  1.27132	708.07397	 24.50	
 11.909	147.299	  1.20712	  0.29965	  1.00672	  0.86113	  0.41251	 -0.03523	  1.26856	708.01202	 24.50	
 11.902	139.148	  1.20963	  0.33340	  0.96663	  0.91520	  0.36982	 -0.03622	  1.26968	707.92798	 24.50	
 11.894	130.867	  1.21050	  0.37328	  0.91914	  0.96174	  0.33285	 -0.03704	  1.26939	707.93201	 24.50	
 11.897	122.732	  1.20828	  0.41664	  0.86504	  1.00013	  0.30069	 -0.03676	  1.26768	708.02600	 24.50	
 11.903	114.597	  1.21684	  0.46917	  0.81323	  1.03986	  0.27770	 -0.03624	  1.27634	708.06897	 24.50	
 11.893	106.346	  1.21421	  0.52341	  0.74943	  1.06052	  0.25942	 -0.03435	  1.27270	707.93903	 24.50	
 11.892	 98.155	  1.21366	  0.58079	  0.68691	  1.07432	  0.24749	 -0.03502	  1.27281	708.06897	 24.50	
 11.900	 90.000	  1.20793	  0.63854	  0.62196	  1.07391	  0.24233	 -0.03508	  1.26620	708.04102	 24.50	
 11.892	 81.845	  1.21523	  0.70403	  0.56403	  1.07361	  0.24622	 -0.03681	  1.27395	708.13898	 24.50	
 11.893	 73.654	  1.21289	  0.76460	  0.50506	  1.05676	  0.25675	 -0.03536	  1.27227	708.19897	 24.50	
 11.903	 65.403	  1.21074	  0.82353	  0.44848	  1.02997	  0.27316	 -0.03458	  1.26997	708.06000	 24.50	
 11.897	 57.268	  1.21420	  0.88228	  0.40030	  0.99968	  0.29920	 -0.03438	  1.27335	708.15302	 24.50	
 11.894	 49.133	  1.21119	  0.93223	  0.35619	  0.95622	  0.33060	 -0.03553	  1.27038	708.20697	 24.50	
 11.902	 40.852	  1.21105	  0.97885	  0.31857	  0.90837	  0.36780	 -0.03579	  1.27014	708.05298	 24.50	
 11.909	 32.701	  1.20478	  1.01269	  0.28535	  0.85103	  0.40985	 -0.03589	  1.26406	708.08002	 24.50	
 11.889	 24.555	  1.20935	  1.04774	  0.26245	  0.79609	  0.46135	 -0.03688	  1.26947	708.30298	 24.50	
 11.890	 16.390	  1.20813	  1.06937	  0.24588	  0.73641	  0.51528	 -0.03896	  1.26949	708.26801	 24.50	
 11.899	  8.217	  1.20986	  1.08472	  0.23529	  0.67662	  0.57354	 -0.03973	  1.27244	708.07703	 24.50	
 11.900	  0.000	  1.20385	  1.08364	  0.23060	  0.61095	  0.63250	 -0.03953	  1.26808	708.13898	 24.50	
 11.899	 -8.217	  1.20241	  1.07751	  0.23479	  0.55140	  0.69390	 -0.03855	  1.26893	708.06097	 24.50	
 11.890	-16.390	  1.20051	  1.06092	  0.24593	  0.49400	  0.75518	 -0.03567	  1.26889	708.17902	 24.50	
 11.889	-24.555	  1.20457	  1.04056	  0.26466	  0.44189	  0.81912	 -0.03688	  1.27348	708.19202	 24.50	
 11.909	-32.701	  1.19852	  1.00326	  0.28794	  0.39081	  0.87295	 -0.03749	  1.26898	708.17603	 24.50	
 11.902	-40.852	  1.19676	  0.96079	  0.31939	  0.34752	  0.92468	 -0.03886	  1.26833	708.17401	 24.50	
 11.894	-49.133	  1.19965	  0.91408	  0.35927	  0.31011	  0.97555	 -0.04131	  1.27244	708.16699	 24.50	
 11.897	-57.268	  1.19417	  0.85724	  0.40158	  0.27727	  1.01173	 -0.04071	  1.26721	708.15100	 24.50	
 11.903	-65.403	  1.19137	  0.79821	  0.45024	  0.25214	  1.04276	 -0.04062	  1.26540	708.09802	 24.50	
 11.893	-73.654	  1.19196	  0.73703	  0.50529	  0.23506	  1.06649	 -0.03985	  1.26581	708.32501	 24.50	
 11.892	-81.845	  1.19182	  0.67618	  0.56287	  0.22469	  1.08152	 -0.04010	  1.26739	707.96198	 24.50	
 11.900	-90.000	  1.19652	  0.61654	  0.62600	  0.22118	  1.09146	 -0.03965	  1.27243	708.12000	 24.50	
 11.892	-98.155	  1.19159	  0.55481	  0.68535	  0.22491	  1.08225	 -0.03936	  1.26846	708.01599	 24.50	
 11.893	-106.346	  1.19113	  0.49715	  0.74695	  0.23565	  1.06775	 -0.04043	  1.26808	708.11401	 24.50	
 11.903	-114.597	  1.19231	  0.44329	  0.80876	  0.25365	  1.04633	 -0.03848	  1.27009	708.01599	 24.50	
 11.897	-122.732	  1.19741	  0.39724	  0.86912	  0.28043	  1.01748	 -0.03698	  1.27499	708.19800	 24.50	
 11.894	-130.867	  1.19054	  0.35307	  0.91677	  0.31111	  0.97146	 -0.03572	  1.26804	708.08002	 24.50	
 11.902	-139.148	  1.19458	  0.31722	  0.96714	  0.35083	  0.92614	 -0.03476	  1.27024	708.10602	 24.50	
 11.909	-147.299	  1.19234	  0.28579	  1.00531	  0.39375	  0.87153	 -0.03430	  1.26708	708.10602	 24.50	
 11.889	-155.445	  1.19407	  0.26354	  1.03706	  0.44391	  0.81437	 -0.03470	  1.26684	708.13599	 24.50	
 11.890	-163.610	  1.19637	  0.24769	  1.06066	  0.49883	  0.75429	 -0.03590	  1.26726	708.11401	 24.50	
 11.899	-171.783	  1.20298	  0.23938	  1.08025	  0.55831	  0.69645	 -0.03721	  1.27257	708.13599	 24.50	
 11.900	180.000	  1.19976	  0.23749	  1.08020	  0.61757	  0.63248	 -0.03743	  1.26816	708.11200	 24.50	
 13.600	180.000	  1.16841	  0.16485	  1.11639	  0.59155	  0.60561	 -0.04659	  1.26487	708.23700	 24.50	
 13.608	-172.853	  1.17018	  0.16595	  1.11597	  0.53324	  0.66786	 -0.04815	  1.26826	708.19800	 24.50	
 13.611	-165.583	  1.16740	  0.17330	  1.10263	  0.47381	  0.72897	 -0.04631	  1.26734	708.20203	 24.50	
 13.601	-158.353	  1.16754	  0.18804	  1.08298	  0.41911	  0.79205	 -0.04590	  1.27012	708.11401	 24.50	
 13.609	-151.210	  1.16904	  0.20760	  1.05812	  0.36859	  0.85305	 -0.04578	  1.27373	708.17401	 24.50	
 13.611	-143.999	  1.16233	  0.23171	  1.01659	  0.32071	  0.90423	 -0.04454	  1.26622	708.17902	 24.50	
 13.601	-136.825	  1.16207	  0.26440	  0.97434	  0.28000	  0.95599	 -0.04546	  1.26780	708.08002	 24.50	
 13.596	-129.640	  1.16012	  0.30072	  0.92391	  0.24284	  1.00131	 -0.04571	  1.26624	708.15302	 24.50	
 13.611	-122.431	  1.16294	  0.34396	  0.87313	  0.21207	  1.04373	 -0.04688	  1.27072	708.18500	 24.50	
 13.604	-115.211	  1.15871	  0.39031	  0.81209	  0.18737	  1.07234	 -0.04835	  1.26572	708.15900	 24.50	
 13.595	-108.042	  1.16322	  0.44415	  0.75511	  0.17005	  1.10037	 -0.04988	  1.27085	708.09198	 24.50	
 13.607	-100.793	  1.16362	  0.49979	  0.69303	  0.15621	  1.11765	 -0.04984	  1.27020	708.10303	 24.50	
 13.601	-93.617	  1.16420	  0.55925	  0.63214	  0.15068	  1.12691	 -0.04822	  1.27119	708.16101	 24.50	
 13.601	-86.383	  1.16371	  0.61981	  0.56902	  0.14943	  1.12589	 -0.04674	  1.26948	708.07397	 24.50	
 13.607	-79.207	  1.16708	  0.68359	  0.51126	  0.15576	  1.12023	 -0.04658	  1.27261	708.20898	 24.50	
 13.595	-71.958	  1.16636	  0.74495	  0.45423	  0.16801	  1.10125	 -0.04496	  1.27088	708.24103	 24.50	
 13.604	-64.789	  1.16420	  0.80465	  0.39946	  0.18576	  1.07406	 -0.04659	  1.26897	708.29401	 24.50	
 13.611	-57.569	  1.16773	  0.86546	  0.35143	  0.20991	  1.04468	 -0.04803	  1.27116	708.18701	 24.50	
 13.596	-50.360	  1.16792	  0.91948	  0.30805	  0.24051	  1.00340	 -0.04821	  1.26997	708.13397	 24.50	
 13.601	-43.175	  1.16854	  0.96892	  0.26870	  0.27603	  0.95679	 -0.04738	  1.26801	708.09198	 24.50	
 13.611	-36.001	  1.17003	  1.01412	  0.23547	  0.31758	  0.90568	 -0.04571	  1.27079	708.21301	 24.50	
 13.609	-28.790	  1.17157	  1.05206	  0.20765	  0.36293	  0.85133	 -0.04395	  1.27048	708.20099	 24.50	
 13.601	-21.647	  1.17115	  1.08017	  0.18688	  0.41315	  0.79166	 -0.04330	  1.26838	708.19299	 24.50	
 13.611	-14.417	  1.17522	  1.10549	  0.17125	  0.46927	  0.73168	 -0.04285	  1.27064	708.15900	 24.50	
 13.608	 -7.147	  1.17579	  1.11873	  0.16274	  0.52696	  0.66878	 -0.04511	  1.26928	708.09198	 24.50	
 13.600	  0.000	  1.17691	  1.12361	  0.15899	  0.58589	  0.60753	 -0.04556	  1.26809	708.17603	 24.50	
 13.608	  7.147	  1.17636	  1.11883	  0.16123	  0.64658	  0.54629	 -0.04637	  1.26712	708.11401	 24.50	
 13.611	 14.417	  1.17865	  1.10929	  0.17033	  0.70891	  0.48864	 -0.04545	  1.26671	708.13702	 24.50	
 13.601	 21.647	  1.18390	  1.09384	  0.18682	  0.77327	  0.43561	 -0.04439	  1.27174	708.37000	 24.50	
 13.609	 28.790	  1.17874	  1.06230	  0.20534	  0.82873	  0.38277	 -0.04281	  1.26498	708.34802	 24.50	
 13.611	 36.001	  1.18254	  1.03021	  0.23288	  0.88727	  0.33721	 -0.04295	  1.26881	708.16699	 24.50	
 13.601	 43.175	  1.18471	  0.98960	  0.26714	  0.94033	  0.29828	 -0.04460	  1.26990	708.25500	 24.50	
 13.596	 50.360	  1.17906	  0.93796	  0.30421	  0.98253	  0.26065	 -0.04423	  1.26322	708.22400	 24.50	
 13.611	 57.569	  1.18231	  0.88780	  0.34831	  1.02695	  0.23008	 -0.04446	  1.26826	708.15002	 24.50	
 13.604	 64.789	  1.18509	  0.83339	  0.39778	  1.06279	  0.20630	 -0.04326	  1.27062	708.16199	 24.50	
 13.595	 71.958	  1.18363	  0.77275	  0.45096	  1.08650	  0.18933	 -0.04493	  1.26821	708.26099	 24.50	
 13.607	 79.207	  1.18528	  0.71099	  0.50822	  1.10612	  0.17675	 -0.04597	  1.27046	708.15601	 24.50	
 13.601	 86.383	  1.18306	  0.64841	  0.56691	  1.11253	  0.17130	 -0.04654	  1.26759	708.23297	 24.50	
 13.601	 93.617	  1.18198	  0.58622	  0.62792	  1.11258	  0.17103	 -0.04523	  1.26691	708.18201	 24.50	
 13.607	100.793	  1.18086	  0.52627	  0.68966	  1.10374	  0.17706	 -0.04425	  1.26554	708.12201	 24.50	
 13.595	108.042	  1.18408	  0.47016	  0.75373	  1.09066	  0.18991	 -0.04540	  1.26969	708.09698	 24.50	
 13.604	115.211	  1.17896	  0.41521	  0.81067	  1.06196	  0.20636	 -0.04646	  1.26457	708.22101	 24.50	
 13.611	122.431	  1.18465	  0.36782	  0.87321	  1.03552	  0.23189	 -0.04722	  1.27132	708.15601	 24.50	
 13.596	129.640	  1.17972	  0.32205	  0.92341	  0.99000	  0.26232	 -0.04841	  1.26485	708.07397	 24.50	
 13.601	136.825	  1.17852	  0.28203	  0.97246	  0.94388	  0.29716	 -0.04713	  1.26537	708.21503	 24.50	
 13.611	143.999	  1.18540	  0.24912	  1.02240	  0.89945	  0.33932	 -0.04559	  1.27453	708.24701	 24.50	
 13.609	151.210	  1.17855	  0.21975	  1.05327	  0.83863	  0.38409	 -0.04527	  1.26725	708.38202	 24.50	
 13.601	158.353	  1.18017	  0.19860	  1.08413	  0.78130	  0.43633	 -0.04561	  1.26942	708.13397	 24.50	
 13.611	165.583	  1.17714	  0.18050	  1.10504	  0.71831	  0.48941	 -0.04785	  1.26991	708.22101	 24.50	
 13.608	172.853	  1.17698	  0.16995	  1.11875	  0.65668	  0.54773	 -0.04710	  1.27064	708.21503	 24.50	
 15.298	173.587	  1.14155	  0.10333	  1.14982	  0.62954	  0.52102	 -0.05589	  1.26610	708.23297	 24.50	
 15.291	167.167	  1.14519	  0.11242	  1.14046	  0.69233	  0.46507	 -0.05592	  1.26832	708.26001	 24.50	
 15.307	160.676	  1.15249	  0.12475	  1.12826	  0.75720	  0.41029	 -0.05539	  1.27523	708.24902	 24.50	
 15.300	154.261	  1.14801	  0.14545	  1.09572	  0.81425	  0.35729	 -0.05348	  1.26776	708.15399	 24.50	
 15.288	147.854	  1.15087	  0.16996	  1.06428	  0.87262	  0.31126	 -0.05328	  1.26999	708.16998	 24.50	
 15.293	141.428	  1.15060	  0.19983	  1.02398	  0.92580	  0.26789	 -0.05448	  1.26859	708.08899	 24.60	
 15.299	134.985	  1.15067	  0.23405	  0.97857	  0.97590	  0.22878	 -0.05616	  1.26756	708.11102	 24.50	
 15.305	128.583	  1.15418	  0.27501	  0.93079	  1.02342	  0.19581	 -0.05720	  1.27172	708.20599	 24.50	
 15.309	122.142	  1.15219	  0.31775	  0.87428	  1.06060	  0.16587	 -0.05536	  1.26897	708.26001	 24.50	
 15.304	115.711	  1.15337	  0.36648	  0.81663	  1.09329	  0.14332	 -0.05382	  1.26889	708.27698	 24.50	
 15.297	109.291	  1.15328	  0.41828	  0.75633	  1.11828	  0.12429	 -0.05206	  1.26826	708.21503	 24.50	
 15.293	102.897	  1.15259	  0.47369	  0.69529	  1.13555	  0.11166	 -0.05135	  1.26818	708.20697	 24.60	
 15.293	 96.458	  1.15325	  0.53212	  0.63381	  1.14732	  0.10379	 -0.05299	  1.26912	708.28601	 24.50	
 15.300	 90.000	  1.15150	  0.59132	  0.56987	  1.14928	  0.09976	 -0.05411	  1.26700	708.24597	 24.60	
 15.293	 83.542	  1.15142	  0.65353	  0.51092	  1.14366	  0.10395	 -0.05524	  1.26677	708.12598	 24.60	
 15.293	 77.103	  1.14996	  0.71398	  0.45190	  1.13056	  0.11112	 -0.05303	  1.26479	708.24103	 24.60	
 15.297	 70.709	  1.15198	  0.77552	  0.39793	  1.11281	  0.12401	 -0.05289	  1.26774	708.19000	 24.60	
 15.304	 64.289	  1.15203	  0.83508	  0.34577	  1.08627	  0.14179	 -0.05106	  1.26706	708.23297	 24.60	
 15.309	 57.858	  1.15253	  0.89239	  0.29797	  1.05426	  0.16451	 -0.05172	  1.26852	708.09698	 24.60	
 15.305	 51.417	  1.15359	  0.94640	  0.25579	  1.01476	  0.19444	 -0.05320	  1.26873	708.16101	 24.60	
 15.299	 45.015	  1.15389	  0.99541	  0.21658	  0.96887	  0.22823	 -0.05142	  1.26918	708.10498	 24.60	
 15.293	 38.572	  1.15462	  1.03939	  0.18378	  0.91808	  0.26755	 -0.05132	  1.27060	708.25702	 24.60	
 15.288	 32.146	  1.15326	  1.07651	  0.15552	  0.86306	  0.31072	 -0.04938	  1.26932	708.19800	 24.60	
 15.300	 25.739	  1.15069	  1.10472	  0.13298	  0.80442	  0.35754	 -0.04766	  1.26728	708.19202	 24.60	
 15.307	 19.324	  1.15042	  1.12937	  0.11605	  0.74443	  0.41015	 -0.04798	  1.26844	708.18402	 24.60	
 15.291	 12.833	  1.15148	  1.14919	  0.10176	  0.68364	  0.46566	 -0.05085	  1.27064	708.14502	 24.60	
 15.298	  6.413	  1.14978	  1.15841	  0.09456	  0.62271	  0.52270	 -0.04887	  1.27144	708.15302	 24.60	
 15.300	  0.000	  1.14898	  1.16089	  0.09221	  0.56124	  0.58285	 -0.04868	  1.27154	708.22601	 24.60	
 15.298	 -6.413	  1.14352	  1.15239	  0.09372	  0.49998	  0.64123	 -0.04881	  1.26762	708.03497	 24.60	
 15.291	-12.833	  1.14433	  1.14133	  0.10449	  0.44554	  0.70424	 -0.04665	  1.27050	708.09198	 24.60	
 15.307	-19.324	  1.14317	  1.12182	  0.11812	  0.39035	  0.76691	 -0.04668	  1.27059	708.25201	 24.60	
 15.300	-25.739	  1.13561	  1.08933	  0.13578	  0.33769	  0.82190	 -0.04679	  1.26457	708.25201	 24.60	
 15.288	-32.146	  1.13773	  1.05814	  0.15891	  0.29184	  0.88026	 -0.04831	  1.26818	708.22101	 24.60	
 15.293	-38.572	  1.13437	  1.01576	  0.18722	  0.24747	  0.93312	 -0.05040	  1.26627	708.26099	 24.60	
 15.299	-45.015	  1.13492	  0.97160	  0.22393	  0.21202	  0.98469	 -0.05283	  1.26756	708.27698	 24.60	
 15.305	-51.417	  1.13530	  0.92152	  0.26030	  0.17688	  1.03002	 -0.05239	  1.26904	708.28003	 24.60	
 15.309	-57.858	  1.13526	  0.86746	  0.30596	  0.15068	  1.06901	 -0.05185	  1.26880	708.11102	 24.60	
 15.304	-64.289	  1.13322	  0.80776	  0.35207	  0.12537	  1.10077	 -0.05030	  1.26791	708.10797	 24.60	
 15.297	-70.709	  1.12912	  0.74511	  0.40405	  0.10931	  1.12223	 -0.04899	  1.26413	708.08002	 24.60	
 15.293	-77.103	  1.12999	  0.68527	  0.45772	  0.09419	  1.14360	 -0.04893	  1.26765	708.26398	 24.60	
 15.293	-83.542	  1.13118	  0.62525	  0.51647	  0.08851	  1.15550	 -0.04967	  1.26875	708.14203	 24.60	
 15.300	-90.000	  1.13012	  0.56367	  0.57674	  0.08557	  1.15966	 -0.05167	  1.26914	708.32800	 24.60	
 15.293	-96.458	  1.13106	  0.50535	  0.63846	  0.08950	  1.15692	 -0.05271	  1.26980	708.25500	 24.60	
 15.293	-102.897	  1.13074	  0.44798	  0.69995	  0.09670	  1.14612	 -0.05397	  1.27051	708.26398	 24.60	
 15.297	-109.291	  1.12897	  0.39530	  0.76040	  0.11282	  1.12544	 -0.05616	  1.26899	708.31097	 24.60	
 15.304	-115.711	  1.12708	  0.34581	  0.81819	  0.13289	  1.09763	 -0.05703	  1.26505	708.23999	 24.60	
 15.309	-122.142	  1.12935	  0.29773	  0.87646	  0.15311	  1.06800	 -0.05441	  1.26831	708.26898	 24.60	
 15.305	-128.583	  1.13077	  0.25740	  0.93138	  0.18331	  1.03062	 -0.05417	  1.26972	708.21600	 24.60	
 15.299	-134.985	  1.13161	  0.21910	  0.98098	  0.21528	  0.98612	 -0.05317	  1.27030	708.20898	 24.60	
 15.293	-141.428	  1.13173	  0.18467	  1.02527	  0.25292	  0.93581	 -0.05388	  1.27003	708.25702	 24.60	
 15.288	-147.854	  1.13095	  0.15830	  1.06235	  0.29652	  0.87949	 -0.05468	  1.26767	708.16803	 24.60	
 15.300	-154.261	  1.12673	  0.13537	  1.08942	  0.34277	  0.81886	 -0.05471	  1.26078	708.16199	 24.60	
 15.307	-160.676	  1.13495	  0.11719	  1.12220	  0.39413	  0.76416	 -0.05474	  1.26849	708.07202	 24.60	
 15.291	-167.167	  1.13256	  0.10621	  1.13552	  0.44959	  0.69949	 -0.05546	  1.26298	708.20697	 24.60	
 15.298	-173.587	  1.14122	  0.10096	  1.15379	  0.51024	  0.64289	 -0.05548	  1.27015	708.13000	 24.60	
 15.300	180.000	  1.13906	  0.09783	  1.15354	  0.56725	  0.57942	 -0.05504	  1.26613	708.13000	 24.60	
 17.000	180.000	  1.10813	  0.04911	  1.18430	  0.54902	  0.55955	 -0.05776	  1.26685	708.27197	 24.60	
 16.990	-174.179	  1.10484	  0.04841	  1.18005	  0.48913	  0.61702	 -0.05889	  1.26482	708.04401	 24.60	
 17.009	-168.383	  1.10207	  0.05235	  1.17089	  0.43251	  0.67551	 -0.05858	  1.26645	708.10498	 24.60	
 17.000	-162.596	  1.10271	  0.06308	  1.15706	  0.37973	  0.73818	 -0.05957	  1.27037	708.11200	 24.60	
 16.990	-156.759	  1.09832	  0.07525	  1.13145	  0.32627	  0.79472	 -0.05859	  1.26640	708.11102	 24.60	
 16.995	-150.919	  1.09563	  0.09710	  1.10049	  0.28041	  0.85187	 -0.05896	  1.26588	708.05701	 24.60	
 16.988	-145.161	  1.09692	  0.12135	  1.06832	  0.23773	  0.90894	 -0.05805	  1.26871	708.13599	 24.60	
 17.014	-139.343	  1.09463	  0.14792	  1.02686	  0.19651	  0.96040	 -0.05778	  1.26805	708.15302	 24.60	
 17.007	-133.546	  1.09454	  0.17950	  0.98162	  0.16043	  1.00810	 -0.05531	  1.26863	708.21002	 24.60	
 17.001	-127.699	  1.09182	  0.21579	  0.92999	  0.12875	  1.04966	 -0.05657	  1.26634	708.22900	 24.60	
 17.006	-121.937	  1.09232	  0.25595	  0.87674	  0.10084	  1.08817	 -0.05649	  1.26686	708.22900	 24.60	
 17.002	-116.134	  1.09100	  0.29854	  0.81943	  0.07637	  1.11977	 -0.05660	  1.26616	708.18701	 24.60	
 17.001	-110.310	  1.09237	  0.34670	  0.76207	  0.05789	  1.14770	 -0.05597	  1.26812	708.28003	 24.60	
 16.988	-104.517	  1.09010	  0.39879	  0.70089	  0.04602	  1.16319	 -0.05447	  1.26368	708.13599	 24.60	
 17.008	-98.662	  1.09003	  0.45139	  0.63932	  0.03435	  1.17670	 -0.05165	  1.26303	708.19501	 24.60	
 16.996	-92.909	  1.09270	  0.50912	  0.58265	  0.03133	  1.18491	 -0.04948	  1.26596	708.15100	 24.60	
 16.996	-87.091	  1.09621	  0.56916	  0.52414	  0.03035	  1.18904	 -0.04652	  1.27009	708.12299	 24.60	
 17.012	-81.253	  1.09870	  0.63047	  0.46757	  0.03356	  1.18453	 -0.04587	  1.27188	708.29199	 24.60	
 16.988	-75.483	  1.09557	  0.68776	  0.41242	  0.04436	  1.16677	 -0.04419	  1.26733	708.14502	 24.60	
 17.001	-69.690	  1.09938	  0.75072	  0.35972	  0.05628	  1.15145	 -0.04721	  1.27148	708.30798	 24.60	
 17.002	-63.866	  1.09974	  0.80961	  0.31088	  0.07550	  1.12399	 -0.04736	  1.26889	708.19000	 24.60	
 17.006	-58.063	  1.09942	  0.86628	  0.26466	  0.09831	  1.09014	 -0.04789	  1.26702	708.27502	 24.60	
 17.001	-52.301	  1.09965	  0.92014	  0.22414	  0.12625	  1.05100	 -0.05063	  1.26597	708.22601	 24.60	
 17.007	-46.454	  1.09921	  0.97066	  0.18546	  0.15692	  1.00682	 -0.04872	  1.26531	708.28900	 24.60	
 17.014	-40.657	  1.10025	  1.01751	  0.15213	  0.19130	  0.96047	 -0.04731	  1.26524	708.25201	 24.60	
 16.988	-34.839	  1.10138	  1.05829	  0.12510	  0.23246	  0.90871	 -0.04848	  1.26519	708.23999	 24.60	
 16.995	-29.081	  1.10543	  1.09781	  0.09873	  0.27451	  0.85586	 -0.04731	  1.26783	708.26001	 24.60	
 16.990	-23.241	  1.10582	  1.12816	  0.07915	  0.32175	  0.79787	 -0.04616	  1.26753	708.36700	 24.60	
 17.000	-17.404	  1.10577	  1.15076	  0.06268	  0.37132	  0.73792	 -0.04503	  1.26479	708.34198	 24.60	
 17.009	-11.617	  1.11187	  1.17363	  0.05050	  0.42640	  0.67992	 -0.04447	  1.26982	708.22998	 24.60	
 16.990	 -5.821	  1.11302	  1.18420	  0.04151	  0.48033	  0.61970	 -0.04601	  1.26795	708.22302	 24.60	
 17.000	  0.000	  1.11079	  1.18451	  0.04171	  0.53715	  0.55953	 -0.04723	  1.26410	708.29401	 24.60	
 16.990	  5.821	  1.11337	  1.18340	  0.04417	  0.59777	  0.50102	 -0.04800	  1.26467	708.28802	 24.60	
 17.009	 11.617	  1.11805	  1.17881	  0.05036	  0.65944	  0.44701	 -0.04711	  1.26816	708.33398	 24.60	
 17.000	 17.404	  1.11783	  1.16355	  0.05804	  0.71735	  0.39096	 -0.04751	  1.26722	708.27100	 24.60	
 16.990	 23.241	  1.12086	  1.14344	  0.07682	  0.77938	  0.34232	 -0.04786	  1.26869	708.37903	 24.60	
 16.995	 29.081	  1.12028	  1.11387	  0.09779	  0.83638	  0.29589	 -0.04837	  1.26727	708.24902	 24.60	
 16.988	 34.839	  1.12219	  1.08144	  0.12219	  0.89255	  0.25266	 -0.05102	  1.26914	708.26001	 24.60	
 17.014	 40.657	  1.12117	  1.04201	  0.14859	  0.94510	  0.21085	 -0.05475	  1.26894	708.14697	 24.60	
 17.007	 46.454	  1.12108	  0.99806	  0.18191	  0.99390	  0.17479	 -0.05706	  1.26848	708.28198	 24.60	
 17.001	 52.301	  1.12152	  0.94884	  0.22226	  1.03801	  0.14727	 -0.05852	  1.26814	708.40399	 24.60	
 17.006	 58.063	  1.11968	  0.89546	  0.26091	  1.07489	  0.11807	 -0.05700	  1.26624	708.27802	 24.60	
 17.002	 63.866	  1.12451	  0.84274	  0.30577	  1.11346	  0.09309	 -0.05450	  1.27259	708.20099	 24.60	
 17.001	 69.690	  1.11599	  0.77922	  0.35436	  1.13240	  0.07734	 -0.05556	  1.26220	708.37097	 24.60	
 16.988	 75.483	  1.12144	  0.72317	  0.40707	  1.15834	  0.06092	 -0.05741	  1.26883	708.38202	 24.60	
 17.012	 81.253	  1.12194	  0.66485	  0.46386	  1.17359	  0.05521	 -0.05829	  1.26955	708.30499	 24.60	
 16.996	 87.091	  1.12163	  0.60286	  0.51968	  1.18055	  0.04691	 -0.05984	  1.27004	708.37097	 24.60	
 16.996	 92.909	  1.12060	  0.54317	  0.57927	  1.18042	  0.04785	 -0.05890	  1.26918	708.27698	 24.60	
 17.008	 98.662	  1.12119	  0.48644	  0.63918	  1.17501	  0.05231	 -0.05557	  1.26939	708.28198	 24.60	
 16.988	104.517	  1.11854	  0.42699	  0.69715	  1.15993	  0.05775	 -0.05500	  1.26690	708.26801	 24.60	
 17.001	110.310	  1.11993	  0.37216	  0.75853	  1.14302	  0.06866	 -0.05710	  1.26961	708.18402	 24.60	
 17.002	116.134	  1.11951	  0.32971	  0.81790	  1.11386	  0.09681	 -0.05893	  1.26564	708.15399	 24.60	
 17.006	121.937	  1.12041	  0.28265	  0.87603	  1.08386	  0.11828	 -0.06182	  1.26702	708.14502	 24.60	
 17.001	127.699	  1.12463	  0.23770	  0.93385	  1.05087	  0.14127	 -0.06382	  1.27351	708.19202	 24.60	
 17.007	133.546	  1.12184	  0.19690	  0.98321	  1.00571	  0.17186	 -0.06364	  1.27090	708.19299	 24.60	
 17.014	139.343	  1.11803	  0.16112	  1.02694	  0.95473	  0.20580	 -0.06355	  1.26879	708.17603	 24.60	
 16.988	145.161	  1.12006	  0.13565	  1.06984	  0.90385	  0.25091	 -0.05970	  1.27083	708.25201	 24.70	
 16.995	150.919	  1.11886	  0.10884	  1.10515	  0.84892	  0.29325	 -0.05917	  1.27089	708.21600	 24.60	
 16.990	156.759	  1.11314	  0.08169	  1.13128	  0.78758	  0.33528	 -0.06046	  1.26650	708.18500	 24.60	
 17.000	162.596	  1.11474	  0.06999	  1.15669	  0.72973	  0.39121	 -0.06033	  1.26873	708.22900	 24.60	
 17.009	168.383	  1.11227	  0.05908	  1.17202	  0.66932	  0.44546	 -0.06163	  1.26802	708.23798	 24.70	
 16.990	174.179	  1.11220	  0.05460	  1.18227	  0.61097	  0.50273	 -0.05986	  1.26791	708.20099	 24.60	
 18.709	174.675	  1.07024	 -0.02392	  1.20952	  0.57484	  0.46423	 -0.06020	  1.26810	708.24103	 24.70	
 18.703	169.441	  1.07349	 -0.01644	  1.20231	  0.63485	  0.41085	 -0.06046	  1.27046	708.31097	 24.60	
 18.691	164.085	  1.07377	 -0.00402	  1.18535	  0.69543	  0.35685	 -0.06089	  1.26742	708.34698	 24.70	
 18.706	158.818	  1.07575	  0.00939	  1.16517	  0.75609	  0.30489	 -0.06041	  1.26932	708.26398	 24.70	
 18.695	153.537	  1.07830	  0.03046	  1.13905	  0.81488	  0.25982	 -0.05800	  1.26889	708.33600	 24.70	
 18.704	148.255	  1.08054	  0.05420	  1.10772	  0.87275	  0.21596	 -0.05827	  1.27022	708.32501	 24.70	
 18.698	142.952	  1.08335	  0.08157	  1.07113	  0.92904	  0.17529	 -0.05884	  1.27246	708.31097	 24.70	
 18.699	137.625	  1.08407	  0.11269	  1.02683	  0.98022	  0.13741	 -0.06088	  1.27208	708.22400	 24.70	
 18.705	132.343	  1.07849	  0.14694	  0.97427	  1.02118	  0.10484	 -0.06090	  1.26422	708.40399	 24.70	
 18.713	127.067	  1.08203	  0.18522	  0.92640	  1.06678	  0.07447	 -0.06007	  1.26898	708.18701	 24.70	
 18.700	121.794	  1.08262	  0.22771	  0.87191	  1.10454	  0.04905	 -0.05968	  1.26857	708.31897	 24.70	
 18.698	116.504	  1.08151	  0.27233	  0.81356	  1.13503	  0.02730	 -0.05625	  1.26708	708.40698	 24.70	
 18.707	111.165	  1.08472	  0.32233	  0.75679	  1.16512	  0.00857	 -0.05691	  1.27064	708.40698	 24.70	
 18.690	105.863	  1.08075	  0.37322	  0.69414	  1.18029	 -0.00361	 -0.05370	  1.26518	708.39301	 24.70	
 18.696	100.583	  1.08128	  0.42765	  0.63451	  1.19445	 -0.01318	 -0.05281	  1.26621	708.29199	 24.70	
 18.700	 95.309	  1.08679	  0.48528	  0.57777	  1.20915	 -0.01940	 -0.05513	  1.27274	708.32703	 24.70	
 18.700	 90.000	  1.08187	  0.54191	  0.51578	  1.20600	 -0.02066	 -0.05581	  1.26729	708.32800	 24.70	
 18.700	 84.691	  1.08429	  0.60249	  0.45913	  1.20463	 -0.01850	 -0.05740	  1.27038	708.30798	 24.70	
 18.696	 79.417	  1.08057	  0.65910	  0.40097	  1.19180	 -0.01421	 -0.05748	  1.26568	708.42102	 24.70	
 18.690	 74.137	  1.08216	  0.72032	  0.34859	  1.17766	 -0.00334	 -0.05552	  1.26797	708.27197	 24.70	
 18.707	 68.835	  1.08329	  0.77974	  0.29647	  1.15818	  0.00804	 -0.05378	  1.26903	708.39801	 24.70	
 18.698	 63.496	  1.08185	  0.83683	  0.24810	  1.12883	  0.02583	 -0.05509	  1.26809	708.44897	 24.70	
 18.700	 58.206	  1.08121	  0.89044	  0.20222	  1.09773	  0.05320	 -0.05439	  1.26814	708.26898	 24.70	
 18.713	 52.933	  1.08357	  0.94590	  0.16133	  1.06147	  0.07840	 -0.05495	  1.27214	708.35602	 24.70	
 18.705	 47.657	  1.08406	  0.99578	  0.12565	  1.01699	  0.11028	 -0.05516	  1.27260	708.27698	 24.70	
 18.699	 42.375	  1.07935	  1.03668	  0.09142	  0.96579	  0.14176	 -0.05486	  1.26596	708.30200	 24.70	
 18.698	 37.048	  1.08120	  1.08047	  0.06195	  0.91558	  0.17990	 -0.05001	  1.26866	708.26001	 24.70	
 18.704	 31.745	  1.08337	  1.11985	  0.03617	  0.86194	  0.22121	 -0.04824	  1.27270	708.33600	 24.70	
 18.695	 26.463	  1.07752	  1.14438	  0.01436	  0.80082	  0.26426	 -0.04503	  1.26588	708.29199	 24.70	
 18.706	 21.182	  1.07964	  1.17292	 -0.00352	  0.74521	  0.31217	 -0.04352	  1.27000	708.28003	 24.70	
 18.691	 15.915	  1.07777	  1.19060	 -0.01677	  0.68454	  0.36303	 -0.04358	  1.26844	708.30499	 24.70	
 18.703	 10.559	  1.07802	  1.20748	 -0.02822	  0.62466	  0.41801	 -0.04237	  1.27168	708.35602	 24.70	
 18.709	  5.325	  1.07203	  1.20881	 -0.03266	  0.56315	  0.47149	 -0.04286	  1.26520	708.46503	 24.70	
 18.700	  0.000	  1.07430	  1.21470	 -0.03485	  0.50527	  0.53148	 -0.04182	  1.27074	708.36700	 24.70	
 18.709	 -5.325	  1.06850	  1.20554	 -0.03298	  0.44585	  0.58848	 -0.04092	  1.26539	708.49902	 24.70	
 18.703	-10.559	  1.07068	  1.20024	 -0.02781	  0.39177	  0.64977	 -0.04200	  1.27129	708.41998	 24.70	
 18.691	-15.915	  1.06850	  1.18381	 -0.01713	  0.33717	  0.71148	 -0.04352	  1.27173	708.44098	 24.70	
 18.706	-21.182	  1.06622	  1.16157	 -0.00481	  0.28651	  0.76916	 -0.04347	  1.27048	708.52399	 24.70	
 18.695	-26.463	  1.06228	  1.12966	  0.01431	  0.23877	  0.82511	 -0.04312	  1.26720	708.52502	 24.70	
 18.704	-31.745	  1.06245	  1.09782	  0.03537	  0.19348	  0.88385	 -0.04526	  1.26955	708.35400	 24.70	
 18.698	-37.048	  1.05846	  1.05563	  0.06101	  0.15265	  0.93488	 -0.04521	  1.26571	708.37000	 24.70	
 18.699	-42.375	  1.05744	  1.01178	  0.09079	  0.11542	  0.98573	 -0.04607	  1.26787	708.49701	 24.70	
 18.705	-47.657	  1.05991	  0.96687	  0.12415	  0.08132	  1.03655	 -0.04828	  1.27137	708.56702	 24.70	
 18.713	-52.933	  1.05919	  0.91480	  0.16111	  0.05059	  1.07977	 -0.04338	  1.27197	708.40997	 24.70	
 18.700	-58.206	  1.05483	  0.85644	  0.20192	  0.02535	  1.11330	 -0.04565	  1.26706	708.38702	 24.70	
 18.698	-63.496	  1.05332	  0.79824	  0.24708	  0.00408	  1.14407	 -0.04292	  1.26650	708.36401	 24.70	
 18.707	-68.835	  1.05644	  0.74151	  0.29698	 -0.01336	  1.17474	 -0.04362	  1.27008	708.52502	 24.70	
 18.690	-74.137	  1.05487	  0.68000	  0.34798	 -0.02751	  1.19431	 -0.04186	  1.26929	708.37799	 24.70	
 18.696	-79.417	  1.05188	  0.61769	  0.40058	 -0.03852	  1.20725	 -0.03970	  1.26718	708.34399	 24.70	
 18.700	-84.691	  1.05109	  0.55718	  0.45622	 -0.04561	  1.21697	 -0.04009	  1.26826	708.30798	 24.70	
 18.700	-90.000	  1.05254	  0.49850	  0.51628	 -0.04691	  1.22180	 -0.04324	  1.27137	708.49103	 24.70	
 18.700	-95.309	  1.04861	  0.43913	  0.57438	 -0.04449	  1.21525	 -0.04717	  1.26733	708.26099	 24.70	
 18.696	-100.583	  1.04916	  0.38424	  0.63510	 -0.03786	  1.20801	 -0.04973	  1.26933	708.32501	 24.70	
 18.690	-105.863	  1.04762	  0.33105	  0.69470	 -0.02798	  1.19089	 -0.05320	  1.26678	708.33099	 24.70	
 18.707	-111.165	  1.04949	  0.28115	  0.75547	 -0.01468	  1.17349	 -0.05482	  1.26946	708.38702	 24.70	
 18.698	-116.504	  1.04897	  0.23386	  0.81368	  0.00406	  1.14568	 -0.05544	  1.26925	708.51898	 24.70	
 18.700	-121.794	  1.04535	  0.18992	  0.86766	  0.02628	  1.11095	 -0.05426	  1.26548	708.46503	 24.70	
 18.713	-127.067	  1.04809	  0.14992	  0.92448	  0.05191	  1.07590	 -0.05496	  1.26857	708.36700	 24.70	
 18.705	-132.343	  1.05076	  0.11401	  0.97680	  0.08274	  1.03443	 -0.05657	  1.27143	708.33899	 24.70	
 18.699	-137.625	  1.05074	  0.08317	  1.02339	  0.11859	  0.98523	 -0.05875	  1.26894	708.41302	 24.70	
 18.698	-142.952	  1.05445	  0.05479	  1.06877	  0.15722	  0.93678	 -0.05983	  1.27246	708.42700	 24.70	
 18.704	-148.255	  1.05125	  0.03026	  1.10214	  0.19819	  0.87922	 -0.05926	  1.26693	708.20697	 24.70	
 18.695	-153.537	  1.05000	  0.01174	  1.13140	  0.24461	  0.81970	 -0.05940	  1.26137	708.20697	 24.70	
 18.706	-158.818	  1.05391	 -0.00499	  1.16091	  0.29316	  0.76358	 -0.05794	  1.26608	708.30902	 24.70	
 18.691	-164.085	  1.05628	 -0.01656	  1.18105	  0.34439	  0.70558	 -0.05814	  1.26639	708.39899	 24.70	
 18.703	-169.441	  1.06183	 -0.02562	  1.20021	  0.40094	  0.64616	 -0.05839	  1.26979	708.38202	 24.70	
 18.709	-174.675	  1.06052	 -0.02972	  1.20401	  0.45514	  0.58546	 -0.05831	  1.26564	708.40601	 24.70	
 18.700	180.000	  1.06273	 -0.02841	  1.20694	  0.51384	  0.52744	 -0.05881	  1.26422	708.37903	 24.70	
 20.400	180.000	  1.01937	 -0.10872	  1.23222	  0.47440	  0.48630	 -0.05592	  1.26776	708.42902	 24.70	
 20.401	-175.153	  1.01811	 -0.11008	  1.23199	  0.41638	  0.54439	 -0.05516	  1.26920	708.43402	 24.70	
 20.407	-170.264	  1.01482	 -0.10533	  1.22237	  0.35997	  0.60450	 -0.05544	  1.26812	708.35101	 24.70	
 20.410	-165.423	  1.00906	 -0.09905	  1.20529	  0.30295	  0.66174	 -0.05361	  1.26469	708.36401	 24.70	
 20.392	-160.496	  1.00774	 -0.08741	  1.18693	  0.25195	  0.72256	 -0.05477	  1.26474	708.47400	 24.70	
 20.401	-155.705	  1.00887	 -0.07492	  1.16642	  0.20308	  0.78330	 -0.05760	  1.26975	708.42700	 24.70	
 20.405	-150.835	  1.00203	 -0.05718	  1.13130	  0.15556	  0.83723	 -0.05756	  1.26395	708.49902	 24.70	
 20.397	-145.903	  1.00308	 -0.03514	  1.09836	  0.11324	  0.89522	 -0.05689	  1.26704	708.46802	 24.70	
 20.392	-141.062	  1.00297	 -0.01026	  1.06005	  0.07363	  0.94999	 -0.05849	  1.26765	708.51300	 24.70	
 20.396	-136.227	  1.00024	  0.01718	  1.01431	  0.03587	  0.99865	 -0.05712	  1.26681	708.52197	 24.70	
 20.408	-131.372	  0.99656	  0.04939	  0.96338	  0.00330	  1.04194	 -0.05601	  1.26363	708.47498	 24.70	
 20.410	-126.511	  0.99903	  0.08457	  0.91370	 -0.02565	  1.08712	 -0.05432	  1.26723	708.53601	 24.70	
 20.400	-121.604	  1.00153	  0.12568	  0.86060	 -0.04993	  1.12750	 -0.05422	  1.27062	708.51099	 24.70	
 20.403	-116.741	  0.99822	  0.16707	  0.80118	 -0.07238	  1.15671	 -0.05170	  1.26662	708.32703	 24.70	
 20.413	-111.900	  1.00129	  0.21232	  0.74486	 -0.09181	  1.18862	 -0.05030	  1.27143	708.40698	 24.70	
 20.398	-107.004	  0.99712	  0.26026	  0.68121	 -0.10630	  1.20472	 -0.04777	  1.26592	708.47998	 24.70	
 20.394	-102.132	  0.99743	  0.31266	  0.62095	 -0.11653	  1.22035	 -0.04773	  1.26483	708.44098	 24.70	
 20.403	-97.332	  0.99845	  0.36545	  0.56131	 -0.12464	  1.23201	 -0.04578	  1.26614	708.50000	 24.70	
 20.392	-92.440	  1.00077	  0.42436	  0.50308	 -0.12790	  1.24019	 -0.04279	  1.26917	708.43402	 24.70	
 20.392	-87.560	  1.00224	  0.48364	  0.44377	 -0.12790	  1.23942	 -0.04152	  1.26778	708.44098	 24.70	
 20.403	-82.668	  1.00386	  0.54343	  0.38639	 -0.12602	  1.23671	 -0.03739	  1.27011	708.38098	 24.70	
 20.394	-77.868	  1.00238	  0.60209	  0.33086	 -0.11858	  1.22354	 -0.03727	  1.26698	708.24597	 24.70	
 20.398	-72.996	  1.00259	  0.66292	  0.27780	 -0.10716	  1.20672	 -0.03826	  1.26507	708.38501	 24.70	
 20.413	-68.100	  1.00411	  0.72455	  0.22758	 -0.09226	  1.18524	 -0.04020	  1.26511	708.27502	 24.70	
 20.403	-63.259	  1.01025	  0.78793	  0.18211	 -0.07467	  1.16389	 -0.03988	  1.27188	708.37097	 24.70	
 20.400	-58.396	  1.00733	  0.84345	  0.13784	 -0.05170	  1.12670	 -0.04223	  1.26658	708.37500	 24.70	
 20.410	-53.489	  1.00893	  0.89980	  0.09665	 -0.02771	  1.09059	 -0.04147	  1.26770	708.48199	 24.70	
 20.408	-48.628	  1.01273	  0.95565	  0.06003	 -0.00001	  1.05208	 -0.04074	  1.27152	708.42902	 24.70	
 20.396	-43.773	  1.01331	  1.00476	  0.02725	  0.03320	  1.00493	 -0.04245	  1.26986	708.24701	 24.70	
 20.392	-38.938	  1.01394	  1.05018	 -0.00306	  0.06922	  0.95395	 -0.04307	  1.26924	708.33899	 24.70	
 20.397	-34.097	  1.01418	  1.09072	 -0.03013	  0.10707	  0.90064	 -0.04115	  1.26776	708.41803	 24.70	
 20.405	-29.165	  1.01578	  1.12838	 -0.05392	  0.14934	  0.84442	 -0.04225	  1.26859	708.34698	 24.70	
 20.401	-24.295	  1.01591	  1.15823	 -0.07265	  0.19560	  0.78511	 -0.04156	  1.26601	708.28601	 24.70	
 20.392	-19.504	  1.02105	  1.18672	 -0.08701	  0.24451	  0.72932	 -0.03984	  1.27107	708.41498	 24.70	
 20.410	-14.577	  1.01970	  1.20532	 -0.10005	  0.29440	  0.66782	 -0.04088	  1.26674	708.30298	 24.70	
 20.407	 -9.736	  1.02136	  1.21966	 -0.10844	  0.34821	  0.60705	 -0.03985	  1.26594	708.35797	 24.70	
 20.401	 -4.847	  1.03009	  1.23637	 -0.11401	  0.40619	  0.55052	 -0.04112	  1.27457	708.26801	 24.70	
 20.400	  0.000	  1.02560	  1.23291	 -0.11509	  0.46183	  0.48884	 -0.03943	  1.26603	708.14203	 24.70	
 20.401	  4.847	  1.03030	  1.23509	 -0.11343	  0.52260	  0.43197	 -0.03966	  1.26999	708.24402	 24.70	
 20.407	  9.736	  1.03110	  1.22717	 -0.10787	  0.58170	  0.37633	 -0.03908	  1.26791	708.19000	 24.70	
 20.410	 14.577	  1.03255	  1.21570	 -0.09919	  0.64220	  0.32290	 -0.04001	  1.26789	708.25403	 24.70	
 20.392	 19.504	  1.03587	  1.20047	 -0.08664	  0.70495	  0.27100	 -0.04036	  1.27051	708.21301	 24.70	
 20.401	 24.295	  1.03192	  1.17264	 -0.07161	  0.75955	  0.22227	 -0.04237	  1.26522	708.32703	 24.70	
 20.405	 29.165	  1.03642	  1.14806	 -0.05219	  0.82012	  0.17781	 -0.04643	  1.26878	708.23297	 24.70	
 20.397	 34.097	  1.03368	  1.11090	 -0.02953	  0.87540	  0.13391	 -0.04806	  1.26550	708.38202	 24.70	
 20.392	 38.938	  1.03571	  1.07434	 -0.00293	  0.93066	  0.09620	 -0.05025	  1.26681	708.29401	 24.70	
 20.396	 43.773	  1.03829	  1.03406	  0.02742	  0.98305	  0.06225	 -0.05072	  1.27056	708.28601	 24.70	
 20.408	 48.628	  1.03780	  0.98740	  0.05969	  1.03107	  0.02893	 -0.05203	  1.27132	708.41998	 24.70	
 20.410	 53.489	  1.03438	  0.93355	  0.09595	  1.07146	 -0.00022	 -0.05101	  1.26575	708.39600	 24.70	
 20.400	 58.396	  1.03458	  0.87982	  0.13702	  1.11066	 -0.02432	 -0.05103	  1.26605	708.23999	 24.70	
 20.403	 63.259	  1.03444	  0.82428	  0.18075	  1.14327	 -0.04506	 -0.05443	  1.26655	708.33398	 24.70	
 20.413	 68.100	  1.03284	  0.76663	  0.22645	  1.17065	 -0.06320	 -0.05383	  1.26514	708.38898	 24.70	
 20.398	 72.996	  1.03137	  0.70572	  0.27708	  1.19084	 -0.07579	 -0.05429	  1.26264	708.45801	 24.70	
 20.394	 77.868	  1.03716	  0.64954	  0.33124	  1.21479	 -0.08706	 -0.05354	  1.27031	708.40997	 24.70	
 20.403	 82.668	  1.03275	  0.58786	  0.38447	  1.22121	 -0.09345	 -0.05011	  1.26431	708.43701	 24.70	
 20.392	 87.560	  1.03676	  0.53026	  0.44339	  1.23134	 -0.09588	 -0.05293	  1.26952	708.30902	 24.70	
 20.392	 92.440	  1.03439	  0.47047	  0.50196	  1.22847	 -0.09429	 -0.05199	  1.26600	708.35901	 24.70	
 20.403	 97.332	  1.03899	  0.41463	  0.56381	  1.22973	 -0.09206	 -0.05080	  1.27187	708.53900	 24.70	
 20.394	102.132	  1.03379	  0.35887	  0.61981	  1.21322	 -0.08472	 -0.04968	  1.26401	708.57501	 24.70	
 20.398	107.004	  1.03614	  0.30622	  0.68272	  1.20036	 -0.07392	 -0.04929	  1.26755	708.43799	 24.70	
 20.413	111.900	  1.03512	  0.25483	  0.74135	  1.17786	 -0.06059	 -0.05076	  1.26679	708.55603	 24.70	
 20.403	116.741	  1.03995	  0.20878	  0.80387	  1.15796	 -0.04384	 -0.05432	  1.27349	708.49902	 24.70	
 20.400	121.604	  1.03392	  0.16219	  0.85676	  1.11968	 -0.02306	 -0.05647	  1.26560	708.53101	 24.70	
 20.410	126.511	  1.03573	  0.12047	  0.91400	  1.08503	  0.00149	 -0.05690	  1.26935	708.42297	 24.70	
 20.408	131.372	  1.03455	  0.08204	  0.96533	  1.04127	  0.02950	 -0.05886	  1.26892	708.39301	 24.70	
 20.396	136.227	  1.03697	  0.04781	  1.01660	  0.99705	  0.06261	 -0.05863	  1.27085	708.46600	 24.70	
 20.392	141.062	  1.03295	  0.01705	  1.05752	  0.94426	  0.09774	 -0.05603	  1.26670	708.38898	 24.70	
 20.397	145.903	  1.03428	 -0.01117	  1.10072	  0.89399	  0.13499	 -0.05614	  1.26937	708.33899	 24.70	
 20.405	150.835	  1.03317	 -0.03613	  1.13649	  0.83623	  0.17762	 -0.05744	  1.26993	708.38501	 24.70	
 20.401	155.705	  1.02818	 -0.05651	  1.16239	  0.77491	  0.22202	 -0.05941	  1.26442	708.48297	 24.70	
 20.392	160.496	  1.03069	 -0.07410	  1.19173	  0.71972	  0.26960	 -0.06031	  1.27044	708.40302	 24.70	
 20.410	165.423	  1.02931	 -0.08844	  1.21177	  0.65832	  0.32169	 -0.05938	  1.27109	708.39001	 24.70	
 20.407	170.264	  1.02544	 -0.09962	  1.22363	  0.59570	  0.37342	 -0.05790	  1.26922	708.35901	 24.70	
 20.401	175.153	  1.02605	 -0.10674	  1.23484	  0.53743	  0.42995	 -0.05654	  1.27176	708.30798	 24.70	
  0.141	 45.000	  1.27853	  0.72415	  0.71689	  0.71904	  0.72853	  0.00956	  1.26797	708.47400	 24.70	
  4.001	128.691	  1.27426	  0.61960	  0.78730	  0.80409	  0.60970	  0.00259	  1.26851	708.43500	 24.70	
  4.002	 76.995	  1.27428	  0.73466	  0.66630	  0.83167	  0.58598	  0.00300	  1.26759	708.41199	 24.70	
  4.002	 25.892	  1.27837	  0.83516	  0.57951	  0.75425	  0.65508	  0.00067	  1.27237	708.47400	 24.70	
  4.002	-25.892	  1.27323	  0.82901	  0.57846	  0.63198	  0.77479	 -0.00088	  1.26866	708.39600	 24.70	
  4.002	-76.995	  1.27304	  0.72925	  0.66628	  0.56269	  0.85532	  0.00062	  1.26843	708.53101	 24.70	
  4.001	-128.691	  1.27477	  0.61346	  0.78873	  0.58819	  0.82751	  0.00127	  1.27172	708.48901	 24.70	
  4.000	180.000	  1.27526	  0.56973	  0.84389	  0.69320	  0.71390	  0.00140	  1.27034	708.54498	 24.70	
  8.000	180.000	  1.24969	  0.40317	  0.97330	  0.66439	  0.68498	 -0.01402	  1.27056	708.51398	 24.70	
  7.991	-152.370	  1.24780	  0.42749	  0.93844	  0.53420	  0.82205	 -0.01466	  1.27085	708.46899	 24.70	
  7.997	-124.550	  1.24482	  0.50711	  0.83804	  0.43668	  0.93343	 -0.01485	  1.26984	708.52002	 24.70	
  8.006	-96.837	  1.24302	  0.62819	  0.70361	  0.39213	  0.98469	 -0.01786	  1.26788	708.55902	 24.70	
  7.988	-69.228	  1.24058	  0.76541	  0.56635	  0.40547	  0.96411	 -0.01830	  1.26475	708.67102	 24.70	
  7.997	-41.563	  1.24229	  0.88835	  0.46063	  0.47396	  0.88058	 -0.01765	  1.26508	708.63397	 24.70	
  8.008	-13.821	  1.24328	  0.96048	  0.40249	  0.58910	  0.75004	 -0.01735	  1.26323	708.59998	 24.70	
  8.008	 13.821	  1.24859	  0.96693	  0.40359	  0.72857	  0.61448	 -0.01629	  1.26582	708.62402	 24.70	
  7.997	 41.563	  1.25598	  0.90436	  0.46288	  0.86100	  0.50302	 -0.01405	  1.27094	708.56799	 24.70	
  7.988	 69.228	  1.25233	  0.78284	  0.56668	  0.94516	  0.43176	 -0.01360	  1.26801	708.56403	 24.70	
  8.006	 96.837	  1.25084	  0.64396	  0.70150	  0.96418	  0.41756	 -0.01265	  1.26571	708.62598	 24.70	
  7.997	124.550	  1.25173	  0.52091	  0.83606	  0.91241	  0.46045	 -0.01432	  1.26733	708.63800	 24.70	
  7.991	152.370	  1.24985	  0.43572	  0.93516	  0.80048	  0.55529	 -0.01326	  1.26672	708.67401	 24.70	
 12.009	161.059	  1.20062	  0.25368	  1.05489	  0.76088	  0.50060	 -0.03643	  1.26691	708.56403	 24.80	
 12.013	142.081	  1.20447	  0.31457	  0.98107	  0.89738	  0.38564	 -0.03549	  1.26728	708.59998	 24.70	
 12.006	123.113	  1.20338	  0.40881	  0.86516	  0.99980	  0.30273	 -0.03813	  1.26574	708.60303	 24.70	
 12.007	104.200	  1.20712	  0.53244	  0.72856	  1.06530	  0.25508	 -0.03616	  1.26848	708.65100	 24.70	
 11.989	 85.301	  1.20896	  0.67336	  0.58612	  1.07731	  0.24655	 -0.03686	  1.26980	708.74799	 24.80	
 12.013	 66.294	  1.20818	  0.81585	  0.45235	  1.03690	  0.27358	 -0.03619	  1.26935	708.61798	 24.80	
 12.012	 47.388	  1.20531	  0.93960	  0.34319	  0.94677	  0.33985	 -0.03753	  1.26689	708.58398	 24.80	
 11.990	 28.440	  1.20467	  1.03198	  0.26889	  0.82493	  0.43898	 -0.03752	  1.26756	708.64899	 24.70	
 11.991	  9.464	  1.20169	  1.07861	  0.23025	  0.68336	  0.56550	 -0.04048	  1.26694	708.60999	 24.80	
 11.991	 -9.464	  1.20042	  1.07643	  0.23159	  0.54211	  0.70883	 -0.03718	  1.26997	708.53302	 24.70	
 11.990	-28.440	  1.19391	  1.01987	  0.26900	  0.41367	  0.84806	 -0.03761	  1.26702	708.70801	 24.80	
 12.012	-47.388	  1.19307	  0.92230	  0.34464	  0.31388	  0.96958	 -0.04208	  1.26829	708.64099	 24.70	
 12.013	-66.294	  1.18847	  0.78978	  0.45174	  0.24695	  1.05321	 -0.04079	  1.26559	708.58698	 24.70	
 11.989	-85.301	  1.19017	  0.64745	  0.58587	  0.22021	  1.09320	 -0.04071	  1.26726	708.66602	 24.70	
 12.007	-104.200	  1.18836	  0.50797	  0.72858	  0.22924	  1.08009	 -0.04198	  1.26779	708.72699	 24.80	
 12.006	-123.113	  1.18514	  0.38739	  0.86464	  0.27750	  1.01539	 -0.03825	  1.26506	708.58600	 24.80	
 12.013	-142.081	  1.18916	  0.29891	  0.98055	  0.36375	  0.91202	 -0.03648	  1.26723	708.67102	 24.80	
 12.009	-161.059	  1.19596	  0.24646	  1.05834	  0.48081	  0.78108	 -0.03675	  1.27007	708.69299	 24.80	
 16.000	180.000	  1.12801	  0.07272	  1.16885	  0.56154	  0.57851	 -0.05882	  1.27041	708.66602	 24.80	
 15.990	-165.604	  1.12064	  0.08619	  1.14588	  0.42711	  0.71825	 -0.05782	  1.26644	708.69702	 24.80	
 16.002	-151.165	  1.11766	  0.12396	  1.08957	  0.30778	  0.85812	 -0.05944	  1.26959	708.59802	 24.80	
 16.002	-136.836	  1.11486	  0.19268	  0.99772	  0.21357	  0.98141	 -0.05668	  1.26776	708.61798	 24.80	
 15.995	-122.439	  1.11208	  0.27407	  0.87805	  0.13310	  1.08001	 -0.05756	  1.26761	708.60303	 24.80	
 15.993	-107.966	  1.11802	  0.39067	  0.74557	  0.08879	  1.15209	 -0.05751	  1.27318	708.71002	 24.80	
 16.005	-93.629	  1.11477	  0.52095	  0.60451	  0.07277	  1.17624	 -0.05240	  1.26909	708.65100	 24.80	
 15.992	-79.234	  1.11424	  0.65739	  0.46535	  0.07465	  1.16508	 -0.05006	  1.26594	708.69702	 24.80	
 16.009	-64.774	  1.11796	  0.80020	  0.34247	  0.10714	  1.12012	 -0.05086	  1.26866	708.71100	 24.80	
 15.997	-50.364	  1.12032	  0.93149	  0.23686	  0.16614	  1.03634	 -0.05340	  1.26838	708.85101	 24.80	
 15.997	-36.045	  1.12209	  1.03981	  0.15752	  0.25121	  0.92252	 -0.04915	  1.26730	708.82098	 24.80	
 16.000	-21.597	  1.12235	  1.11630	  0.10201	  0.35740	  0.78955	 -0.04714	  1.26413	708.67401	 24.80	
 16.003	 -7.169	  1.13224	  1.16487	  0.07554	  0.48772	  0.65215	 -0.04904	  1.27150	708.76398	 24.80	
 16.003	  7.169	  1.13612	  1.17023	  0.06860	  0.62389	  0.51012	 -0.04956	  1.27224	708.61499	 24.80	
 16.000	 21.597	  1.13702	  1.13208	  0.09729	  0.76586	  0.38184	 -0.05107	  1.26832	708.59302	 24.80	
 15.997	 36.045	  1.13913	  1.06136	  0.14982	  0.90151	  0.27168	 -0.05280	  1.26893	708.75598	 24.80	
 15.997	 50.364	  1.13849	  0.95658	  0.22615	  1.01594	  0.18213	 -0.05786	  1.26819	708.59003	 24.80	
 16.009	 64.774	  1.13686	  0.82861	  0.33008	  1.10118	  0.12249	 -0.05575	  1.26665	708.59802	 24.80	
 15.992	 79.234	  1.13744	  0.68732	  0.45535	  1.15283	  0.08731	 -0.05680	  1.26848	708.53101	 24.80	
 16.005	 93.629	  1.13838	  0.54507	  0.59524	  1.16549	  0.08043	 -0.05733	  1.26881	708.63800	 24.80	
 15.993	107.966	  1.13543	  0.41221	  0.73627	  1.13334	  0.10209	 -0.05608	  1.26552	708.72803	 24.80	
 15.995	122.439	  1.13508	  0.29631	  0.87438	  1.06731	  0.15067	 -0.05951	  1.26399	708.59302	 24.80	
 16.002	136.836	  1.13626	  0.19911	  0.99742	  0.97028	  0.22270	 -0.06068	  1.26823	708.67902	 24.80	
 16.002	151.165	  1.13526	  0.12988	  1.09138	  0.84605	  0.32053	 -0.05673	  1.27059	708.61298	 24.80	
 15.990	165.604	  1.13221	  0.08713	  1.14927	  0.70414	  0.44250	 -0.05976	  1.26992	708.75500	 24.70	
 20.003	168.362	  1.03597	 -0.07600	  1.21237	  0.62588	  0.36620	 -0.05987	  1.26697	708.65698	 24.70	
 20.008	156.764	  1.04103	 -0.04328	  1.16761	  0.76846	  0.24719	 -0.05677	  1.26853	708.61499	 24.70	
 20.000	145.147	  1.04354	  0.01060	  1.09106	  0.90228	  0.14539	 -0.05723	  1.26872	708.65698	 24.70	
 19.995	133.545	  1.04603	  0.08368	  0.98867	  1.01926	  0.06326	 -0.05933	  1.26767	708.53900	 24.70	
 20.009	121.926	  1.04586	  0.17526	  0.86382	  1.11568	 -0.00237	 -0.05707	  1.26799	708.60602	 24.70	
 20.005	110.327	  1.04689	  0.28491	  0.72825	  1.18256	 -0.04619	 -0.05255	  1.26724	708.71301	 24.70	
 19.989	 98.733	  1.04608	  0.40865	  0.58750	  1.21674	 -0.06973	 -0.05095	  1.26527	708.62598	 24.70	
 19.999	 87.075	  1.04370	  0.54331	  0.44795	  1.22041	 -0.07467	 -0.05499	  1.26436	708.72498	 24.70	
 19.992	 75.457	  1.04922	  0.68592	  0.31979	  1.20181	 -0.06016	 -0.05530	  1.26917	708.67200	 24.70	
 20.009	 63.844	  1.04632	  0.82133	  0.20252	  1.14324	 -0.02714	 -0.05544	  1.26594	708.64301	 24.70	
 19.989	 52.269	  1.05149	  0.95289	  0.10424	  1.06378	  0.02683	 -0.05565	  1.27319	708.64301	 24.70	
 19.999	 40.602	  1.05189	  1.06365	  0.02461	  0.95307	  0.10155	 -0.05246	  1.27334	708.55298	 24.70	
 20.004	 29.051	  1.04701	  1.14561	 -0.03527	  0.82215	  0.19419	 -0.04461	  1.26836	708.66901	 24.70	
 20.005	 17.433	  1.04565	  1.20375	 -0.07476	  0.68483	  0.30603	 -0.04102	  1.26983	708.65698	 24.70	
 20.006	  5.780	  1.03796	  1.22604	 -0.09464	  0.54117	  0.43114	 -0.03848	  1.26564	708.61700	 24.70	
 20.006	 -5.780	  1.03367	  1.22225	 -0.09515	  0.40485	  0.56630	 -0.03953	  1.26626	708.56097	 24.70	
 20.005	-17.433	  1.03341	  1.19363	 -0.07573	  0.27864	  0.71142	 -0.04232	  1.27128	708.57898	 24.70	
 20.004	-29.051	  1.02923	  1.12820	 -0.03586	  0.16629	  0.84818	 -0.04381	  1.27073	708.63202	 24.70	
 19.999	-40.602	  1.02655	  1.03568	  0.02319	  0.07323	  0.97360	 -0.04488	  1.27099	708.70001	 24.70	
 19.989	-52.269	  1.02207	  0.91629	  0.10347	 -0.00234	  1.08017	 -0.04411	  1.26934	708.51300	 24.70	
 20.009	-63.844	  1.01812	  0.78260	  0.20145	 -0.05726	  1.16071	 -0.04272	  1.26760	708.60699	 24.70	
 19.992	-75.457	  1.01847	  0.64317	  0.31914	 -0.09194	  1.21539	 -0.04014	  1.27078	708.66302	 24.70	
 19.999	-87.075	  1.01310	  0.49930	  0.44749	 -0.10799	  1.23383	 -0.04204	  1.26707	708.57202	 24.70	
 19.989	-98.733	  1.01089	  0.36340	  0.58729	 -0.10321	  1.22586	 -0.04585	  1.26606	708.57800	 24.70	
 20.005	-110.327	  1.00805	  0.24189	  0.72687	 -0.07709	  1.18689	 -0.05081	  1.26539	708.55902	 24.70	
 20.009	-121.926	  1.01028	  0.13731	  0.86450	 -0.03087	  1.12104	 -0.05390	  1.26746	708.57800	 24.70	
 19.995	-133.545	  1.01344	  0.05196	  0.98867	  0.03545	  1.02690	 -0.05556	  1.26940	708.68597	 24.70	
 20.000	-145.147	  1.01475	 -0.01471	  1.09043	  0.12151	  0.90752	 -0.05859	  1.26861	708.63702	 24.70	
 20.008	-156.764	  1.02094	 -0.05985	  1.16922	  0.22816	  0.77582	 -0.05562	  1.27088	708.72699	 24.70	
 20.003	-168.362	  1.02409	 -0.08464	  1.21096	  0.34988	  0.63474	 -0.05574	  1.26693	708.62402	 24.70	
 20.000	180.000	  1.02751	 -0.09044	  1.22392	  0.48321	  0.49531	 -0.05794	  1.26390	708.62598	 24.70	
