FileType=PCF
NHL=14
Date=08/30/17	16:42:02
Facility=APL
Serial=16328-20
Customer=NASA
NP=6
Mach=0.050000
Calibration=1:1
CalPts=490
TstPts=95
PortNumbering=AP Standard
Units=Torr C m/s kg/m^3 deg mm 
Theta[deg]	Phi[deg]	P1[Torr]	P2[Torr]	P3[Torr]	P4[Torr]	P5[Torr]	P6[Torr]	Pt[Torr]	Ps[Abs,Torr]	Ts[C]	
  0.000	  0.000	  1.30674	  0.73585	  0.72484	  0.72723	  0.74465	  0.00768	  1.29813	704.04199	 22.70	
  1.691	128.401	  1.31372	  0.70431	  0.75192	  0.75925	  0.70924	  0.00782	  1.30612	703.96301	 22.70	
  1.692	 77.194	  1.31312	  0.74720	  0.70658	  0.77190	  0.69656	  0.00775	  1.30600	704.06702	 22.70	
  1.699	 26.182	  1.31028	  0.78383	  0.66963	  0.73963	  0.71784	  0.00687	  1.30267	704.14001	 22.70	
  1.699	-26.182	  1.31125	  0.78616	  0.66584	  0.69053	  0.76745	  0.00570	  1.30344	704.07800	 22.80	
  1.692	-77.194	  1.31312	  0.74634	  0.70125	  0.66431	  0.80098	  0.00518	  1.30517	704.13800	 22.80	
  1.691	-128.401	  1.31110	  0.69932	  0.74881	  0.67300	  0.78989	  0.00564	  1.30390	703.98297	 22.80	
  1.700	180.000	  1.31387	  0.68491	  0.77438	  0.71643	  0.74649	  0.00626	  1.30588	704.12097	 22.80	
  3.400	180.000	  1.31188	  0.61624	  0.83710	  0.70799	  0.74445	  0.00348	  1.30590	703.91302	 22.80	
  3.388	-152.325	  1.30703	  0.62538	  0.81754	  0.65165	  0.79666	  0.00259	  1.30168	704.11603	 22.80	
  3.397	-124.529	  1.31103	  0.66113	  0.77743	  0.61293	  0.84428	  0.00181	  1.30575	704.03900	 22.80	
  3.399	-96.763	  1.30754	  0.71303	  0.71841	  0.59163	  0.86252	  0.00071	  1.30280	704.16101	 22.80	
  3.394	-69.283	  1.31186	  0.77148	  0.66519	  0.60137	  0.85530	  0.00161	  1.30701	704.06097	 22.80	
  3.400	-41.398	  1.31000	  0.82196	  0.61934	  0.63118	  0.81801	  0.00116	  1.30465	704.06500	 22.80	
  3.401	-14.021	  1.30810	  0.84973	  0.59589	  0.67925	  0.76435	  0.00242	  1.30312	704.07300	 22.80	
  3.401	 14.021	  1.30952	  0.84979	  0.59875	  0.73875	  0.70625	  0.00290	  1.30401	704.11499	 22.80	
  3.400	 41.398	  1.31149	  0.82249	  0.62552	  0.79322	  0.66034	  0.00449	  1.30533	704.11298	 22.80	
  3.394	 69.283	  1.31371	  0.77257	  0.67264	  0.82981	  0.63487	  0.00436	  1.30783	704.05298	 22.80	
  3.399	 96.763	  1.31216	  0.71499	  0.72799	  0.83479	  0.63105	  0.00402	  1.30621	704.05902	 22.80	
  3.397	124.529	  1.31186	  0.66453	  0.78325	  0.81153	  0.64983	  0.00476	  1.30524	704.14899	 22.80	
  3.388	152.325	  1.30900	  0.62845	  0.81975	  0.76472	  0.68809	  0.00433	  1.30278	704.08197	 22.80	
  5.099	161.165	  1.30727	  0.55704	  0.88719	  0.76043	  0.67883	 -0.00144	  1.30649	704.54199	 22.80	
  5.109	142.013	  1.30434	  0.58194	  0.85477	  0.81546	  0.62753	 -0.00046	  1.30296	704.15997	 22.80	
  5.095	123.033	  1.30506	  0.62399	  0.80824	  0.85980	  0.59076	  0.00092	  1.30370	704.16803	 22.80	
  5.105	104.191	  1.30634	  0.67627	  0.75219	  0.88941	  0.56649	  0.00100	  1.30543	704.05402	 22.80	
  5.093	 85.207	  1.30617	  0.73626	  0.68957	  0.89635	  0.55886	  0.00138	  1.30513	704.08899	 22.80	
  5.104	 66.290	  1.30600	  0.79574	  0.63194	  0.88100	  0.56996	  0.00041	  1.30546	704.10901	 22.90	
  5.094	 47.331	  1.30874	  0.85201	  0.58377	  0.84545	  0.59971	 -0.00120	  1.30828	704.15399	 22.90	
  5.089	 28.397	  1.30644	  0.88999	  0.54790	  0.79302	  0.64213	 -0.00050	  1.30632	704.05402	 22.90	
  5.096	  9.576	  1.30150	  0.91038	  0.52495	  0.73011	  0.69369	 -0.00159	  1.30269	704.12402	 22.90	
  5.096	 -9.576	  1.30075	  0.90928	  0.52352	  0.66744	  0.75457	 -0.00281	  1.30239	704.43402	 22.90	
  5.089	-28.397	  1.30315	  0.88869	  0.54233	  0.61323	  0.81447	 -0.00382	  1.30498	704.38501	 22.90	
  5.094	-47.331	  1.30336	  0.84973	  0.57387	  0.56749	  0.86561	 -0.00502	  1.30467	704.59100	 22.90	
  5.104	-66.290	  1.30522	  0.79648	  0.62207	  0.53589	  0.90674	 -0.00537	  1.30634	704.24103	 22.90	
  5.093	-85.207	  1.30371	  0.73439	  0.67856	  0.52180	  0.92231	 -0.00552	  1.30555	704.11499	 22.90	
  5.105	-104.191	  1.30383	  0.67452	  0.74114	  0.52579	  0.91952	 -0.00532	  1.30519	704.07001	 22.90	
  5.095	-123.033	  1.30445	  0.62163	  0.79991	  0.54863	  0.89491	 -0.00441	  1.30567	704.12598	 22.90	
  5.109	-142.013	  1.30455	  0.57930	  0.85129	  0.58696	  0.85310	 -0.00356	  1.30612	704.12402	 22.90	
  5.099	-161.165	  1.30288	  0.55264	  0.88368	  0.63853	  0.79546	 -0.00225	  1.30334	704.16101	 22.90	
  5.100	180.000	  1.30551	  0.54620	  0.89741	  0.69797	  0.73787	 -0.00169	  1.30531	704.13000	 22.90	
  6.800	180.000	  1.29448	  0.47211	  0.95401	  0.68419	  0.72730	 -0.00796	  1.30484	704.11200	 22.90	
  6.796	-166.229	  1.29316	  0.47758	  0.94389	  0.62281	  0.78674	 -0.01024	  1.30456	704.08502	 22.90	
  6.808	-152.311	  1.29662	  0.49634	  0.92256	  0.57106	  0.84519	 -0.01156	  1.30848	704.14899	 22.90	
  6.795	-138.383	  1.29031	  0.52533	  0.87765	  0.52107	  0.89355	 -0.01133	  1.30289	704.12299	 22.90	
  6.792	-124.591	  1.29284	  0.56832	  0.82866	  0.48537	  0.93758	 -0.01217	  1.30478	704.21002	 22.90	
  6.787	-110.754	  1.29118	  0.61798	  0.77116	  0.45902	  0.96553	 -0.01384	  1.30433	704.15503	 22.90	
  6.800	-96.985	  1.28932	  0.67491	  0.70827	  0.44493	  0.97824	 -0.01335	  1.30253	704.24103	 22.90	
  6.800	-83.015	  1.29384	  0.73850	  0.64969	  0.44918	  0.97783	 -0.01377	  1.30688	704.22998	 23.00	
  6.787	-69.246	  1.29218	  0.79612	  0.59308	  0.46184	  0.96082	 -0.01447	  1.30601	704.18500	 22.90	
  6.792	-55.409	  1.29151	  0.85259	  0.54267	  0.48854	  0.92621	 -0.01381	  1.30480	704.14801	 23.00	
  6.795	-41.617	  1.29030	  0.90045	  0.50153	  0.52545	  0.88259	 -0.01197	  1.30331	704.06201	 23.00	
  6.808	-27.689	  1.29538	  0.94135	  0.47369	  0.57499	  0.83122	 -0.01172	  1.30845	704.07300	 23.00	
  6.796	-13.771	  1.29275	  0.96247	  0.45575	  0.62800	  0.77164	 -0.01032	  1.30524	704.12097	 23.00	
  6.800	  0.000	  1.29356	  0.97073	  0.45100	  0.68842	  0.71194	 -0.00870	  1.30570	704.16803	 23.00	
  6.796	 13.771	  1.29004	  0.96180	  0.45622	  0.74816	  0.65060	 -0.00868	  1.30203	704.15399	 23.00	
  6.808	 27.689	  1.29426	  0.94038	  0.47882	  0.81063	  0.60047	 -0.00809	  1.30499	704.16803	 23.00	
  6.795	 41.617	  1.29102	  0.90054	  0.51023	  0.86080	  0.55451	 -0.00687	  1.30120	704.30298	 23.00	
  6.792	 55.409	  1.29093	  0.85240	  0.55232	  0.90440	  0.51910	 -0.00640	  1.30074	704.21698	 23.00	
  6.787	 69.246	  1.29395	  0.79748	  0.60539	  0.93690	  0.49724	 -0.00683	  1.30353	704.22198	 23.00	
  6.800	 83.015	  1.29186	  0.73656	  0.66109	  0.95046	  0.48564	 -0.00608	  1.30034	704.23297	 23.00	
  6.800	 96.985	  1.28743	  0.67406	  0.72012	  0.94760	  0.48517	 -0.00564	  1.29657	704.08099	 23.00	
  6.787	110.754	  1.29202	  0.61937	  0.78282	  0.93275	  0.50195	 -0.00689	  1.30076	704.17700	 23.00	
  6.792	124.591	  1.29168	  0.57074	  0.83734	  0.89945	  0.52937	 -0.00723	  1.29908	704.30103	 23.00	
  6.795	138.383	  1.29499	  0.52994	  0.88799	  0.85975	  0.56643	 -0.00637	  1.30373	704.30902	 23.00	
  6.808	152.311	  1.29401	  0.49760	  0.92416	  0.80497	  0.61273	 -0.00705	  1.30255	704.25800	 23.00	
  6.796	166.229	  1.29381	  0.47908	  0.94650	  0.74484	  0.66697	 -0.00747	  1.30299	704.19299	 23.00	
  8.491	168.704	  1.27795	  0.40330	  0.99953	  0.72968	  0.65119	 -0.01567	  1.30175	704.30902	 23.10	
  8.502	157.493	  1.27649	  0.41907	  0.98064	  0.79022	  0.59342	 -0.01573	  1.29994	704.29498	 23.00	
  8.494	146.194	  1.27886	  0.44517	  0.95148	  0.85094	  0.54236	 -0.01452	  1.30212	704.29797	 23.00	
  8.495	135.039	  1.27986	  0.48064	  0.91103	  0.90341	  0.49942	 -0.01390	  1.30376	704.20300	 23.10	
  8.487	123.723	  1.27761	  0.52262	  0.85840	  0.94621	  0.46249	 -0.01403	  1.30135	704.23102	 23.10	
  8.492	112.575	  1.28144	  0.57525	  0.80407	  0.98116	  0.43745	 -0.01501	  1.30416	704.20001	 23.10	
  8.510	101.220	  1.28211	  0.63172	  0.74349	  1.00434	  0.41862	 -0.01430	  1.30604	704.34003	 23.10	
  8.500	 90.000	  1.28309	  0.69343	  0.68035	  1.01133	  0.41325	 -0.01298	  1.30672	704.22998	 23.10	
  8.510	 78.780	  1.28212	  0.75469	  0.61781	  1.00479	  0.41647	 -0.01375	  1.30472	704.27002	 23.10	
  8.492	 67.425	  1.28257	  0.81755	  0.56020	  0.98647	  0.42888	 -0.01452	  1.30737	704.20001	 23.10	
  8.487	 56.277	  1.27898	  0.87247	  0.50799	  0.95188	  0.45249	 -0.01419	  1.30459	704.28101	 23.10	
  8.495	 44.961	  1.28108	  0.92571	  0.46328	  0.91117	  0.48665	 -0.01502	  1.30684	704.21899	 23.10	
  8.494	 33.806	  1.27918	  0.96677	  0.42648	  0.85722	  0.52867	 -0.01660	  1.30572	704.36603	 23.10	
  8.502	 22.507	  1.27908	  0.99861	  0.40038	  0.80071	  0.57707	 -0.01756	  1.30591	704.34100	 23.10	
  8.491	 11.296	  1.27763	  1.01706	  0.38299	  0.73844	  0.63152	 -0.01737	  1.30590	704.43799	 23.10	
  8.500	  0.000	  1.27613	  1.02137	  0.37703	  0.67331	  0.69226	 -0.01781	  1.30426	704.29602	 23.10	
  8.491	-11.296	  1.27294	  1.01319	  0.37901	  0.61007	  0.75273	 -0.01996	  1.30294	704.39697	 23.10	
  8.502	-22.507	  1.27453	  0.99656	  0.39152	  0.55332	  0.81349	 -0.02112	  1.30394	704.35699	 23.10	
  8.494	-33.806	  1.27681	  0.96579	  0.41754	  0.50118	  0.87469	 -0.02135	  1.30720	704.21399	 23.10	
  8.495	-44.961	  1.27473	  0.92148	  0.45083	  0.45551	  0.92538	 -0.02153	  1.30438	704.36603	 23.10	
  8.487	-56.277	  1.27365	  0.86974	  0.49368	  0.42061	  0.96663	 -0.02319	  1.30363	704.18298	 23.10	
  8.492	-67.425	  1.27144	  0.81151	  0.54115	  0.39281	  0.99840	 -0.02416	  1.30047	704.24402	 23.10	
  8.510	-78.780	  1.27118	  0.74976	  0.59847	  0.37600	  1.02055	 -0.02397	  1.30047	704.20203	 23.10	
  8.500	-90.000	  1.27646	  0.68902	  0.66193	  0.37098	  1.03277	 -0.02307	  1.30553	704.34900	 23.10	
  8.510	-101.220	  1.27272	  0.62641	  0.72374	  0.37380	  1.02531	 -0.02284	  1.30202	704.31799	 23.10	
  8.492	-112.575	  1.27641	  0.57205	  0.78740	  0.39279	  1.00993	 -0.02282	  1.30512	704.35797	 23.10	
  8.487	-123.723	  1.27233	  0.51903	  0.84324	  0.41606	  0.97697	 -0.02075	  1.30122	704.27002	 23.10	
  8.495	-135.039	  1.27403	  0.47562	  0.89826	  0.44992	  0.93968	 -0.01966	  1.30237	704.31000	 23.10	
  8.494	-146.194	  1.27483	  0.44186	  0.94120	  0.49384	  0.88973	 -0.01947	  1.30328	704.36499	 23.10	
  8.502	-157.493	  1.27824	  0.41756	  0.97761	  0.54856	  0.83490	 -0.01894	  1.30592	704.19098	 23.10	
  8.491	-168.704	  1.27661	  0.40240	  0.99746	  0.60450	  0.77334	 -0.01703	  1.30323	704.27301	 23.10	
  8.500	180.000	  1.28128	  0.39846	  1.00893	  0.66784	  0.71392	 -0.01630	  1.30736	704.25500	 23.10	
 10.200	180.000	  1.26058	  0.32289	  1.05838	  0.64686	  0.69589	 -0.02604	  1.30572	704.15997	 23.10	
 10.191	-170.497	  1.25826	  0.32708	  1.04995	  0.58463	  0.75869	 -0.02694	  1.30420	704.24799	 23.10	
 10.210	-161.034	  1.25577	  0.33832	  1.03124	  0.52502	  0.81874	 -0.02800	  1.30408	704.29498	 23.10	
 10.194	-151.526	  1.25879	  0.36078	  1.00315	  0.47199	  0.88025	 -0.02838	  1.30752	704.21698	 23.10	
 10.190	-142.105	  1.25720	  0.39015	  0.96280	  0.42326	  0.93392	 -0.02804	  1.30692	704.33502	 23.10	
 10.215	-132.646	  1.25263	  0.42407	  0.91326	  0.38034	  0.97856	 -0.02835	  1.30265	704.20001	 23.10	
 10.203	-123.092	  1.25461	  0.47024	  0.85893	  0.34675	  1.01915	 -0.03040	  1.30523	704.24402	 23.10	
 10.192	-113.678	  1.25260	  0.52049	  0.79800	  0.32100	  1.04874	 -0.03299	  1.30322	704.26703	 23.10	
 10.208	-104.249	  1.24992	  0.57582	  0.73329	  0.30258	  1.06707	 -0.03439	  1.30094	704.33398	 23.10	
 10.210	-94.801	  1.25208	  0.63680	  0.67110	  0.29304	  1.07979	 -0.03427	  1.30341	704.31403	 23.20	
 10.210	-85.199	  1.24719	  0.69784	  0.60391	  0.29351	  1.07362	 -0.03327	  1.29942	704.26398	 23.10	
 10.208	-75.751	  1.24793	  0.76211	  0.54466	  0.30303	  1.06114	 -0.03429	  1.29912	704.23297	 23.20	
 10.192	-66.322	  1.25581	  0.82813	  0.49289	  0.32384	  1.04240	 -0.03495	  1.30725	704.27802	 23.20	
 10.203	-56.908	  1.25638	  0.88612	  0.44337	  0.35180	  1.00917	 -0.03377	  1.30732	704.24402	 23.20	
 10.215	-47.354	  1.25239	  0.93745	  0.39812	  0.38528	  0.96234	 -0.03216	  1.30430	704.27197	 23.20	
 10.190	-37.895	  1.25558	  0.98693	  0.36146	  0.42859	  0.91383	 -0.03066	  1.30700	704.39001	 23.20	
 10.194	-28.474	  1.25434	  1.02165	  0.33467	  0.47654	  0.85702	 -0.02915	  1.30526	704.40002	 23.20	
 10.210	-18.966	  1.25248	  1.04855	  0.31259	  0.53113	  0.79466	 -0.03039	  1.30344	704.30298	 23.20	
 10.191	 -9.503	  1.25372	  1.06393	  0.30390	  0.59098	  0.73351	 -0.02821	  1.30377	704.35199	 23.20	
 10.200	  0.000	  1.25472	  1.07202	  0.29940	  0.65389	  0.67099	 -0.02731	  1.30489	704.39001	 23.20	
 10.191	  9.503	  1.25511	  1.06682	  0.30589	  0.71825	  0.61098	 -0.02543	  1.30448	704.47601	 23.20	
 10.210	 18.966	  1.25437	  1.04863	  0.31906	  0.78002	  0.55389	 -0.02574	  1.30279	704.50702	 23.20	
 10.194	 28.474	  1.25826	  1.02363	  0.34360	  0.84384	  0.50254	 -0.02480	  1.30597	704.49500	 23.20	
 10.190	 37.895	  1.25709	  0.98556	  0.37370	  0.90012	  0.45575	 -0.02276	  1.30522	704.51703	 23.20	
 10.215	 47.354	  1.25738	  0.94012	  0.41248	  0.95088	  0.41434	 -0.02204	  1.30428	704.45898	 23.20	
 10.203	 56.908	  1.25790	  0.88637	  0.45882	  0.99247	  0.38366	 -0.02285	  1.30351	704.54199	 23.20	
 10.192	 66.322	  1.26097	  0.83109	  0.51207	  1.02438	  0.36237	 -0.02217	  1.30484	704.49500	 23.20	
 10.208	 75.751	  1.26161	  0.76812	  0.56922	  1.04860	  0.34612	 -0.02261	  1.30562	704.48700	 23.20	
 10.210	 85.199	  1.25930	  0.70525	  0.62822	  1.05829	  0.33826	 -0.02191	  1.30346	704.40802	 23.20	
 10.210	 94.801	  1.26144	  0.64206	  0.69278	  1.05855	  0.34044	 -0.02231	  1.30515	704.42700	 23.20	
 10.208	104.249	  1.26456	  0.58382	  0.75917	  1.04957	  0.35050	 -0.02313	  1.30873	704.37701	 23.20	
 10.192	113.678	  1.26289	  0.52831	  0.81864	  1.02270	  0.37135	 -0.02356	  1.30525	704.26398	 23.20	
 10.203	123.092	  1.26062	  0.47629	  0.87556	  0.98850	  0.39603	 -0.02272	  1.30369	704.32703	 23.20	
 10.215	132.646	  1.26218	  0.43093	  0.92990	  0.94739	  0.43016	 -0.02208	  1.30456	704.40698	 23.20	
 10.190	142.105	  1.26218	  0.39466	  0.97475	  0.89475	  0.47389	 -0.02170	  1.30478	704.50000	 23.20	
 10.194	151.526	  1.26195	  0.36485	  1.01092	  0.83596	  0.52383	 -0.02320	  1.30397	704.40503	 23.20	
 10.210	161.034	  1.26255	  0.34264	  1.03935	  0.77563	  0.57768	 -0.02474	  1.30568	704.30902	 23.20	
 10.191	170.497	  1.26200	  0.32959	  1.05498	  0.71351	  0.63481	 -0.02486	  1.30627	704.42999	 23.20	
 11.899	171.783	  1.23715	  0.25337	  1.10078	  0.68973	  0.61430	 -0.03393	  1.30575	704.32098	 23.20	
 11.890	163.610	  1.23906	  0.26490	  1.08868	  0.75367	  0.55682	 -0.03388	  1.30621	704.26501	 23.20	
 11.889	155.445	  1.23867	  0.28412	  1.06424	  0.81573	  0.50052	 -0.03341	  1.30451	704.43103	 23.20	
 11.909	147.299	  1.24029	  0.30769	  1.03401	  0.87881	  0.44862	 -0.03208	  1.30697	704.47803	 23.20	
 11.902	139.148	  1.24044	  0.34121	  0.99348	  0.93456	  0.40218	 -0.03210	  1.30765	704.43903	 23.20	
 11.894	130.867	  1.24017	  0.38017	  0.94410	  0.98336	  0.36389	 -0.03246	  1.30606	704.39899	 23.20	
 11.897	122.732	  1.24147	  0.42598	  0.89207	  1.02724	  0.33102	 -0.03319	  1.30835	704.42700	 23.20	
 11.903	114.597	  1.23719	  0.47535	  0.83022	  1.05880	  0.30141	 -0.03364	  1.30412	704.45001	 23.30	
 11.893	106.346	  1.23822	  0.53110	  0.76813	  1.08596	  0.28167	 -0.03386	  1.30537	704.53802	 23.30	
 11.892	 98.155	  1.23948	  0.59045	  0.70561	  1.10244	  0.27036	 -0.03391	  1.30768	704.41400	 23.30	
 11.900	 90.000	  1.23723	  0.65081	  0.64021	  1.10727	  0.26418	 -0.03231	  1.30474	704.49500	 23.30	
 11.892	 81.845	  1.23731	  0.71478	  0.57848	  1.10227	  0.26708	 -0.03160	  1.30509	704.53198	 23.30	
 11.893	 73.654	  1.23349	  0.77646	  0.51605	  1.08507	  0.27469	 -0.03114	  1.30150	704.56500	 23.30	
 11.903	 65.403	  1.23119	  0.83710	  0.45903	  1.05947	  0.29021	 -0.03158	  1.30060	704.44702	 23.30	
 11.897	 57.268	  1.23242	  0.89627	  0.40769	  1.02734	  0.31457	 -0.03334	  1.30284	704.57098	 23.30	
 11.894	 49.133	  1.22997	  0.94771	  0.36253	  0.98434	  0.34525	 -0.03257	  1.29963	704.46198	 23.30	
 11.902	 40.852	  1.23194	  0.99900	  0.32259	  0.93867	  0.38268	 -0.03324	  1.30358	704.49799	 23.30	
 11.909	 32.701	  1.22832	  1.03739	  0.28835	  0.88077	  0.42481	 -0.03434	  1.30095	704.61798	 23.30	
 11.889	 24.555	  1.22809	  1.07028	  0.26245	  0.82190	  0.47442	 -0.03385	  1.30092	704.51501	 23.30	
 11.890	 16.390	  1.22388	  1.09099	  0.24217	  0.75751	  0.52627	 -0.03430	  1.29732	704.61603	 23.30	
 11.899	  8.217	  1.22407	  1.10664	  0.22874	  0.69430	  0.58358	 -0.03535	  1.29880	704.47803	 23.30	
 11.900	  0.000	  1.22398	  1.11102	  0.22456	  0.62965	  0.64388	 -0.03738	  1.29826	704.57703	 23.30	
 11.899	 -8.217	  1.22289	  1.10543	  0.22632	  0.56717	  0.70689	 -0.03885	  1.29789	704.50299	 23.30	
 11.890	-16.390	  1.22640	  1.09481	  0.23570	  0.50911	  0.77130	 -0.03941	  1.30258	704.43903	 23.30	
 11.889	-24.555	  1.22703	  1.07162	  0.25311	  0.45162	  0.83418	 -0.03812	  1.30332	704.43799	 23.30	
 11.909	-32.701	  1.22882	  1.04028	  0.27736	  0.40253	  0.89393	 -0.03844	  1.30656	704.63599	 23.30	
 11.902	-40.852	  1.22940	  1.00091	  0.30760	  0.35663	  0.94844	 -0.03887	  1.30685	704.56500	 23.30	
 11.894	-49.133	  1.22553	  0.94834	  0.34603	  0.31410	  0.99685	 -0.04025	  1.30261	704.42200	 23.30	
 11.897	-57.268	  1.22358	  0.89157	  0.38994	  0.28172	  1.03674	 -0.04378	  1.30018	704.53998	 23.30	
 11.903	-65.403	  1.22877	  0.83687	  0.44043	  0.25538	  1.07557	 -0.04461	  1.30590	704.56897	 23.30	
 11.893	-73.654	  1.22867	  0.77456	  0.49546	  0.23713	  1.10113	 -0.04519	  1.30535	704.66302	 23.30	
 11.892	-81.845	  1.22986	  0.71240	  0.55405	  0.22483	  1.11850	 -0.04530	  1.30648	704.67798	 23.30	
 11.900	-90.000	  1.22762	  0.64780	  0.61507	  0.21912	  1.12440	 -0.04470	  1.30489	704.68103	 23.30	
 11.892	-98.155	  1.22894	  0.58669	  0.67905	  0.22430	  1.12178	 -0.04480	  1.30579	704.65503	 23.30	
 11.893	-106.346	  1.22858	  0.52532	  0.74376	  0.23409	  1.10874	 -0.04474	  1.30389	704.62701	 23.30	
 11.903	-114.597	  1.22972	  0.47049	  0.80837	  0.25108	  1.08960	 -0.04407	  1.30709	704.60400	 23.30	
 11.897	-122.732	  1.23220	  0.42162	  0.86899	  0.27800	  1.06014	 -0.04083	  1.30897	704.50897	 23.30	
 11.894	-130.867	  1.23210	  0.37675	  0.92435	  0.30979	  1.02038	 -0.03879	  1.30738	704.54901	 23.30	
 11.902	-139.148	  1.23039	  0.33824	  0.97387	  0.34966	  0.97257	 -0.03821	  1.30501	704.54199	 23.30	
 11.909	-147.299	  1.22876	  0.30335	  1.01680	  0.39302	  0.91892	 -0.03904	  1.30400	704.64203	 23.30	
 11.889	-155.445	  1.23137	  0.28086	  1.05321	  0.44541	  0.86318	 -0.03840	  1.30457	704.69000	 23.30	
 11.890	-163.610	  1.23383	  0.26363	  1.08017	  0.50209	  0.80275	 -0.03813	  1.30584	704.63898	 23.30	
 11.899	-171.783	  1.23097	  0.25185	  1.09404	  0.55969	  0.73838	 -0.03765	  1.30246	704.62500	 23.30	
 11.900	180.000	  1.23243	  0.24984	  1.10014	  0.62393	  0.67442	 -0.03446	  1.30212	704.75897	 23.30	
 13.600	180.000	  1.20705	  0.17531	  1.14606	  0.59879	  0.65424	 -0.04514	  1.30672	704.64697	 23.30	
 13.608	-172.853	  1.20477	  0.17665	  1.13933	  0.53582	  0.71513	 -0.04839	  1.30540	704.69000	 23.30	
 13.611	-165.583	  1.20407	  0.18549	  1.12441	  0.47538	  0.77910	 -0.04988	  1.30624	704.65002	 23.30	
 13.601	-158.353	  1.20288	  0.20292	  1.10012	  0.41875	  0.84185	 -0.05026	  1.30648	704.74500	 23.30	
 13.609	-151.210	  1.19648	  0.22243	  1.06298	  0.36531	  0.89621	 -0.04992	  1.30041	704.63599	 23.30	
 13.611	-143.999	  1.19702	  0.25016	  1.02476	  0.31714	  0.95217	 -0.04880	  1.30184	704.57098	 23.30	
 13.601	-136.825	  1.19764	  0.28439	  0.98009	  0.27477	  1.00458	 -0.04848	  1.30460	704.84698	 23.30	
 13.596	-129.640	  1.19678	  0.32220	  0.92742	  0.23824	  1.04901	 -0.04932	  1.30300	704.78497	 23.30	
 13.611	-122.431	  1.19438	  0.36644	  0.86850	  0.20585	  1.08569	 -0.05048	  1.30084	704.63898	 23.30	
 13.604	-115.211	  1.19837	  0.41825	  0.81100	  0.18274	  1.11940	 -0.05285	  1.30566	704.57599	 23.30	
 13.595	-108.042	  1.19900	  0.47246	  0.74909	  0.16531	  1.14224	 -0.05560	  1.30604	704.67200	 23.30	
 13.607	-100.793	  1.19708	  0.52912	  0.68324	  0.14995	  1.15740	 -0.05447	  1.30495	704.54901	 23.30	
 13.601	-93.617	  1.19727	  0.58933	  0.62028	  0.14545	  1.16360	 -0.05351	  1.30470	704.56500	 23.30	
 13.601	-86.383	  1.19532	  0.65338	  0.55531	  0.14744	  1.15876	 -0.05119	  1.30189	704.65601	 23.30	
 13.607	-79.207	  1.19554	  0.71600	  0.49520	  0.15438	  1.14869	 -0.05308	  1.30302	704.59302	 23.40	
 13.595	-71.958	  1.19592	  0.78077	  0.43842	  0.16686	  1.13047	 -0.05021	  1.30420	704.83801	 23.40	
 13.604	-64.789	  1.19255	  0.83947	  0.38341	  0.18692	  1.10032	 -0.05006	  1.30050	704.80402	 23.30	
 13.611	-57.569	  1.19337	  0.89933	  0.33433	  0.21142	  1.06744	 -0.05072	  1.30105	704.68903	 23.40	
 13.596	-50.360	  1.19492	  0.95478	  0.29233	  0.24441	  1.02649	 -0.04859	  1.30246	704.68103	 23.40	
 13.601	-43.175	  1.19576	  1.00545	  0.25422	  0.28202	  0.97844	 -0.04738	  1.30314	704.54901	 23.40	
 13.611	-36.001	  1.19538	  1.04936	  0.21998	  0.32454	  0.92514	 -0.04593	  1.30354	704.71997	 23.40	
 13.609	-28.790	  1.19386	  1.08458	  0.19432	  0.37281	  0.86601	 -0.04476	  1.30177	704.61902	 23.40	
 13.601	-21.647	  1.19649	  1.11599	  0.17501	  0.42723	  0.80794	 -0.04409	  1.30357	704.64899	 23.40	
 13.611	-14.417	  1.19373	  1.13445	  0.16060	  0.48247	  0.74353	 -0.04419	  1.29971	704.60797	 23.40	
 13.608	 -7.147	  1.19756	  1.15064	  0.15315	  0.54515	  0.68240	 -0.04390	  1.30330	704.60199	 23.40	
 13.600	  0.000	  1.19971	  1.15579	  0.15260	  0.60808	  0.62080	 -0.04419	  1.30529	704.60199	 23.40	
 13.608	  7.147	  1.19781	  1.15083	  0.15479	  0.67162	  0.55864	 -0.04180	  1.30249	704.75098	 23.40	
 13.611	 14.417	  1.20128	  1.14031	  0.16647	  0.73856	  0.50077	 -0.04263	  1.30551	704.72498	 23.40	
 13.601	 21.647	  1.20292	  1.12010	  0.18345	  0.80173	  0.44687	 -0.04201	  1.30643	704.75702	 23.40	
 13.609	 28.790	  1.20052	  1.08835	  0.20525	  0.86091	  0.39551	 -0.04258	  1.30252	704.76599	 23.40	
 13.611	 36.001	  1.20340	  1.05272	  0.23578	  0.92087	  0.35082	 -0.04056	  1.30550	704.85602	 23.40	
 13.601	 43.175	  1.20041	  1.00584	  0.26962	  0.96987	  0.30944	 -0.04187	  1.30049	704.68597	 23.40	
 13.596	 50.360	  1.20298	  0.95755	  0.31218	  1.01921	  0.27620	 -0.04103	  1.30192	704.89203	 23.40	
 13.611	 57.569	  1.20483	  0.90430	  0.35614	  1.06316	  0.24530	 -0.04105	  1.30471	704.61902	 23.40	
 13.604	 64.789	  1.20474	  0.84445	  0.40692	  1.09646	  0.22140	 -0.04081	  1.30344	704.78497	 23.40	
 13.595	 71.958	  1.20661	  0.78343	  0.46321	  1.12161	  0.20638	 -0.04127	  1.30417	704.71100	 23.40	
 13.607	 79.207	  1.20735	  0.72082	  0.52264	  1.13970	  0.19378	 -0.04255	  1.30484	704.70099	 23.40	
 13.601	 86.383	  1.20395	  0.65691	  0.58108	  1.14382	  0.19010	 -0.04134	  1.30041	704.76501	 23.40	
 13.601	 93.617	  1.21084	  0.59555	  0.64974	  1.14923	  0.19261	 -0.04166	  1.30779	704.80402	 23.40	
 13.607	100.793	  1.20550	  0.53367	  0.71002	  1.13526	  0.19962	 -0.04206	  1.30114	704.71802	 23.40	
 13.595	108.042	  1.20808	  0.47754	  0.77502	  1.11768	  0.21462	 -0.04281	  1.30284	704.70398	 23.40	
 13.604	115.211	  1.20645	  0.42003	  0.83727	  1.08967	  0.23383	 -0.04295	  1.30153	704.72900	 23.40	
 13.611	122.431	  1.20963	  0.37143	  0.89703	  1.05711	  0.26112	 -0.04351	  1.30416	704.79700	 23.40	
 13.596	129.640	  1.20884	  0.32754	  0.95176	  1.01373	  0.29373	 -0.04261	  1.30320	704.78802	 23.40	
 13.601	136.825	  1.20925	  0.28734	  1.00210	  0.96546	  0.33198	 -0.04164	  1.30380	704.79901	 23.40	
 13.611	143.999	  1.20938	  0.25395	  1.04519	  0.91216	  0.37437	 -0.04090	  1.30388	704.67999	 23.40	
 13.609	151.210	  1.20896	  0.22587	  1.08124	  0.85370	  0.42221	 -0.04164	  1.30365	704.74298	 23.40	
 13.601	158.353	  1.20726	  0.20376	  1.10824	  0.79097	  0.47407	 -0.04253	  1.30172	704.82898	 23.50	
 13.611	165.583	  1.20724	  0.18716	  1.13012	  0.72717	  0.53098	 -0.04446	  1.30355	704.80499	 23.50	
 13.608	172.853	  1.20656	  0.17831	  1.14150	  0.66372	  0.59099	 -0.04508	  1.30426	704.82202	 23.50	
 15.298	173.587	  1.17570	  0.11039	  1.17898	  0.63674	  0.56846	 -0.05406	  1.30576	704.80103	 23.50	
 15.291	167.167	  1.17313	  0.11608	  1.16679	  0.69684	  0.50786	 -0.05319	  1.30118	704.69800	 23.50	
 15.307	160.676	  1.17449	  0.12889	  1.15067	  0.76245	  0.44949	 -0.05188	  1.30310	704.79102	 23.50	
 15.300	154.261	  1.17751	  0.14877	  1.12653	  0.82707	  0.39764	 -0.05067	  1.30555	704.78198	 23.50	
 15.288	147.854	  1.17642	  0.17230	  1.09230	  0.88525	  0.34776	 -0.04966	  1.30295	704.74298	 23.50	
 15.293	141.428	  1.17842	  0.20290	  1.05444	  0.94335	  0.30453	 -0.04999	  1.30429	704.75897	 23.50	
 15.299	134.985	  1.17514	  0.23729	  1.00645	  0.99388	  0.26026	 -0.05207	  1.30118	704.83899	 23.50	
 15.305	128.583	  1.17754	  0.27623	  0.95805	  1.04458	  0.22584	 -0.05106	  1.30505	704.83002	 23.50	
 15.309	122.142	  1.17711	  0.32168	  0.90168	  1.08567	  0.19482	 -0.05042	  1.30420	704.86102	 23.50	
 15.304	115.711	  1.17783	  0.37157	  0.84460	  1.11921	  0.17300	 -0.05051	  1.30442	704.80701	 23.50	
 15.297	109.291	  1.17906	  0.42508	  0.78405	  1.14777	  0.15367	 -0.04881	  1.30543	704.83197	 23.50	
 15.293	102.897	  1.17934	  0.48130	  0.71959	  1.17021	  0.13596	 -0.04901	  1.30613	704.88599	 23.50	
 15.293	 96.458	  1.17696	  0.53831	  0.65570	  1.18109	  0.12721	 -0.04988	  1.30512	704.92499	 23.50	
 15.300	 90.000	  1.17627	  0.60009	  0.59186	  1.18552	  0.12250	 -0.04926	  1.30449	704.86700	 23.50	
 15.293	 83.542	  1.17668	  0.66475	  0.52949	  1.18295	  0.12431	 -0.04972	  1.30657	704.88300	 23.50	
 15.293	 77.103	  1.17488	  0.72611	  0.46828	  1.17049	  0.12877	 -0.04957	  1.30448	704.75702	 23.50	
 15.297	 70.709	  1.17299	  0.78635	  0.41281	  1.14904	  0.14275	 -0.04918	  1.30272	704.84198	 23.50	
 15.304	 64.289	  1.17110	  0.84745	  0.35594	  1.12329	  0.15751	 -0.04870	  1.30327	704.87799	 23.50	
 15.309	 57.858	  1.17240	  0.90700	  0.30820	  1.09176	  0.17990	 -0.04960	  1.30434	704.89099	 23.50	
 15.305	 51.417	  1.17215	  0.96119	  0.26556	  1.05180	  0.20893	 -0.05015	  1.30411	704.81598	 23.50	
 15.299	 45.015	  1.16457	  1.00801	  0.22211	  1.00004	  0.24123	 -0.04889	  1.29846	704.87000	 23.50	
 15.293	 38.572	  1.16957	  1.05908	  0.18585	  0.95119	  0.27978	 -0.04614	  1.30403	705.04401	 23.60	
 15.288	 32.146	  1.16770	  1.09698	  0.15709	  0.89438	  0.32337	 -0.04649	  1.30279	705.00403	 23.60	
 15.300	 25.739	  1.16922	  1.13280	  0.13111	  0.83811	  0.36926	 -0.04626	  1.30553	704.78802	 23.60	
 15.307	 19.324	  1.16295	  1.15288	  0.11278	  0.77221	  0.42059	 -0.04468	  1.29881	704.92603	 23.60	
 15.291	 12.833	  1.16613	  1.17575	  0.09698	  0.70952	  0.47604	 -0.04546	  1.30373	705.03900	 23.60	
 15.298	  6.413	  1.16231	  1.18418	  0.08710	  0.64413	  0.53262	 -0.04574	  1.30056	705.01001	 23.60	
 15.300	  0.000	  1.16150	  1.18837	  0.08280	  0.58066	  0.59224	 -0.04669	  1.29986	704.97101	 23.60	
 15.298	 -6.413	  1.16041	  1.18266	  0.08369	  0.51966	  0.65188	 -0.04737	  1.29873	704.94202	 23.60	
 15.291	-12.833	  1.15777	  1.16855	  0.09175	  0.46104	  0.71241	 -0.04772	  1.29651	704.87500	 23.60	
 15.307	-19.324	  1.16116	  1.15408	  0.10379	  0.40320	  0.77864	 -0.04889	  1.30121	704.94000	 23.60	
 15.300	-25.739	  1.15711	  1.12345	  0.12121	  0.34833	  0.83671	 -0.04716	  1.29702	705.04700	 23.60	
 15.288	-32.146	  1.16054	  1.09387	  0.14341	  0.30215	  0.89606	 -0.04812	  1.30120	705.02899	 23.60	
 15.293	-38.572	  1.15394	  1.04955	  0.17117	  0.25500	  0.94794	 -0.04964	  1.29453	704.95599	 23.60	
 15.299	-45.015	  1.15491	  1.00533	  0.20275	  0.21357	  1.00058	 -0.05237	  1.29510	705.00098	 23.60	
 15.305	-51.417	  1.15423	  0.95394	  0.24253	  0.18062	  1.04581	 -0.05327	  1.29459	705.08301	 23.60	
 15.309	-57.858	  1.15536	  0.90060	  0.28421	  0.15009	  1.08723	 -0.05302	  1.29653	705.07501	 23.60	
 15.304	-64.289	  1.15553	  0.84073	  0.33336	  0.12730	  1.12206	 -0.05162	  1.29566	705.08801	 23.60	
 15.297	-70.709	  1.15780	  0.78075	  0.38437	  0.10571	  1.15227	 -0.05139	  1.29850	705.01202	 23.60	
 15.293	-77.103	  1.15981	  0.72096	  0.44077	  0.09291	  1.17431	 -0.05429	  1.30006	705.06299	 23.60	
 15.293	-83.542	  1.15607	  0.65648	  0.49679	  0.08314	  1.18460	 -0.05466	  1.29779	705.08801	 23.60	
 15.300	-90.000	  1.15639	  0.59409	  0.55883	  0.08098	  1.19069	 -0.05774	  1.29568	705.04901	 23.60	
 15.293	-96.458	  1.16052	  0.53474	  0.62279	  0.08297	  1.19192	 -0.05833	  1.30066	704.95001	 23.60	
 15.293	-102.897	  1.16065	  0.47497	  0.68655	  0.09016	  1.18333	 -0.06137	  1.30049	704.85999	 23.60	
 15.297	-109.291	  1.15978	  0.42114	  0.74791	  0.10511	  1.16512	 -0.06149	  1.29857	704.97900	 23.60	
 15.304	-115.711	  1.15764	  0.36613	  0.80911	  0.11954	  1.14094	 -0.06090	  1.29795	704.89099	 23.60	
 15.309	-122.142	  1.15735	  0.31777	  0.86917	  0.14485	  1.10915	 -0.06123	  1.29653	704.86102	 23.60	
 15.305	-128.583	  1.15768	  0.27325	  0.92545	  0.17374	  1.07138	 -0.05842	  1.29641	705.03198	 23.60	
 15.299	-134.985	  1.15442	  0.23338	  0.97566	  0.20554	  1.02786	 -0.05917	  1.29328	704.91400	 23.60	
 15.293	-141.428	  1.16010	  0.20081	  1.02717	  0.24695	  0.98207	 -0.05903	  1.29746	704.86902	 23.60	
 15.288	-147.854	  1.16440	  0.17254	  1.07320	  0.29155	  0.93149	 -0.05968	  1.30178	704.91498	 23.60	
 15.300	-154.261	  1.16232	  0.14877	  1.10543	  0.33954	  0.87250	 -0.05847	  1.29846	704.98798	 23.60	
 15.307	-160.676	  1.16489	  0.12805	  1.13626	  0.39122	  0.81411	 -0.05856	  1.30021	704.85999	 23.60	
 15.291	-167.167	  1.16756	  0.11807	  1.15811	  0.45198	  0.75147	 -0.05885	  1.30064	704.94202	 23.60	
 15.298	-173.587	  1.16672	  0.10770	  1.17052	  0.50767	  0.68882	 -0.05705	  1.29931	705.01202	 23.60	
 15.300	180.000	  1.16928	  0.10627	  1.17673	  0.56935	  0.62823	 -0.05471	  1.29986	705.12000	 23.60	
 17.000	180.000	  1.13406	  0.05281	  1.20723	  0.54748	  0.60713	 -0.05821	  1.29909	705.01300	 23.60	
 16.990	-174.179	  1.13328	  0.05677	  1.20135	  0.48967	  0.66780	 -0.06015	  1.29928	705.07202	 23.60	
 17.009	-168.383	  1.12836	  0.06031	  1.18797	  0.42946	  0.72557	 -0.06352	  1.29741	704.97400	 23.60	
 17.000	-162.596	  1.12928	  0.07228	  1.17126	  0.37556	  0.78795	 -0.06298	  1.29942	705.08600	 23.60	
 16.990	-156.759	  1.12734	  0.08923	  1.14325	  0.32306	  0.84688	 -0.06178	  1.29792	705.09698	 23.60	
 16.995	-150.919	  1.12628	  0.10970	  1.11195	  0.27472	  0.90418	 -0.06098	  1.29896	705.15302	 23.60	
 16.988	-145.161	  1.12665	  0.13350	  1.07371	  0.22858	  0.95976	 -0.06456	  1.30055	705.09100	 23.60	
 17.014	-139.343	  1.12443	  0.16207	  1.02991	  0.18727	  1.01144	 -0.06353	  1.30027	705.06702	 23.60	
 17.007	-133.546	  1.12282	  0.19581	  0.97910	  0.15095	  1.05584	 -0.06346	  1.29752	704.97400	 23.60	
 17.001	-127.699	  1.12412	  0.23492	  0.92720	  0.11906	  1.09938	 -0.06031	  1.29924	704.96997	 23.60	
 17.006	-121.937	  1.12353	  0.27841	  0.87002	  0.09223	  1.13554	 -0.06006	  1.29841	704.95398	 23.60	
 17.002	-116.134	  1.12683	  0.32481	  0.81403	  0.07049	  1.16856	 -0.06092	  1.30224	705.02698	 23.60	
 17.001	-110.310	  1.12450	  0.37310	  0.75089	  0.04930	  1.19114	 -0.05965	  1.30080	704.94598	 23.60	
 16.988	-104.517	  1.12197	  0.42651	  0.68705	  0.03674	  1.20595	 -0.05828	  1.29811	705.00403	 23.60	
 17.008	-98.662	  1.12559	  0.48350	  0.62712	  0.02655	  1.22151	 -0.05726	  1.30351	705.09399	 23.60	
 16.996	-92.909	  1.12676	  0.54305	  0.56532	  0.02270	  1.22791	 -0.05452	  1.30467	705.06000	 23.70	
 16.996	-87.091	  1.12648	  0.60392	  0.50601	  0.02508	  1.22459	 -0.05110	  1.30446	705.05200	 23.60	
 17.012	-81.253	  1.12601	  0.66505	  0.44734	  0.02880	  1.21641	 -0.04988	  1.30355	705.19800	 23.70	
 16.988	-75.483	  1.12698	  0.72650	  0.39231	  0.03910	  1.20193	 -0.04864	  1.30492	705.13397	 23.70	
 17.001	-69.690	  1.12357	  0.78607	  0.33894	  0.05418	  1.17762	 -0.04889	  1.30211	705.02698	 23.70	
 17.002	-63.866	  1.12915	  0.85064	  0.29040	  0.07318	  1.15541	 -0.04792	  1.30868	705.11499	 23.70	
 17.006	-58.063	  1.12672	  0.90749	  0.24338	  0.09656	  1.11821	 -0.04921	  1.30526	705.04102	 23.70	
 17.001	-52.301	  1.12280	  0.95880	  0.20196	  0.12485	  1.07430	 -0.04753	  1.30071	705.18799	 23.70	
 17.007	-46.454	  1.12143	  1.00833	  0.16417	  0.15781	  1.02730	 -0.04905	  1.29905	705.18799	 23.70	
 17.014	-40.657	  1.12118	  1.05506	  0.13004	  0.19356	  0.97832	 -0.05022	  1.29909	705.26300	 23.70	
 16.988	-34.839	  1.12243	  1.09605	  0.10567	  0.23806	  0.92502	 -0.04782	  1.29868	705.22400	 23.70	
 16.995	-29.081	  1.12543	  1.13493	  0.07935	  0.28253	  0.87079	 -0.04713	  1.30249	705.29401	 23.70	
 16.990	-23.241	  1.12225	  1.16026	  0.06068	  0.33149	  0.80864	 -0.04664	  1.29792	705.40100	 23.70	
 17.000	-17.404	  1.12334	  1.18615	  0.04657	  0.38574	  0.74840	 -0.04422	  1.29894	705.29498	 23.70	
 17.009	-11.617	  1.12236	  1.20292	  0.03372	  0.43897	  0.68647	 -0.04428	  1.29894	705.29901	 23.70	
 16.990	 -5.821	  1.12669	  1.21422	  0.03089	  0.50013	  0.62877	 -0.04315	  1.30222	705.19000	 23.70	
 17.000	  0.000	  1.12687	  1.21786	  0.02967	  0.56064	  0.56906	 -0.04448	  1.30051	705.22302	 23.70	
 16.990	  5.821	  1.12704	  1.21385	  0.03398	  0.62340	  0.50891	 -0.04653	  1.29965	705.33301	 23.70	
 17.009	 11.617	  1.12774	  1.20491	  0.04001	  0.68457	  0.45218	 -0.04533	  1.30029	705.20502	 23.70	
 17.000	 17.404	  1.12420	  1.18441	  0.05381	  0.74482	  0.39886	 -0.04498	  1.29660	705.12000	 23.70	
 16.990	 23.241	  1.12566	  1.16033	  0.07406	  0.80732	  0.34964	 -0.04477	  1.29614	705.22302	 23.70	
 16.995	 29.081	  1.12555	  1.13003	  0.09437	  0.86527	  0.30197	 -0.04508	  1.29616	705.37500	 23.70	
 16.988	 34.839	  1.13224	  1.10030	  0.12096	  0.92556	  0.26156	 -0.04876	  1.30168	705.28302	 23.70	
 17.014	 40.657	  1.12953	  1.05670	  0.14932	  0.97801	  0.21949	 -0.05307	  1.29835	705.27502	 23.70	
 17.007	 46.454	  1.13217	  1.01127	  0.18699	  1.02979	  0.18677	 -0.04884	  1.30016	705.23297	 23.70	
 17.001	 52.301	  1.13236	  0.96035	  0.22537	  1.07331	  0.15528	 -0.04935	  1.29923	705.15698	 23.70	
 17.006	 58.063	  1.13279	  0.90440	  0.27054	  1.11029	  0.13209	 -0.05023	  1.29815	705.22900	 23.70	
 17.002	 63.866	  1.13203	  0.84688	  0.31563	  1.14430	  0.10764	 -0.04910	  1.29748	705.29999	 23.70	
 17.001	 69.690	  1.13527	  0.78977	  0.36506	  1.17347	  0.08943	 -0.05092	  1.30100	705.23297	 23.70	
 16.988	 75.483	  1.13623	  0.72904	  0.42244	  1.19216	  0.08044	 -0.05281	  1.30015	705.31598	 23.70	
 17.012	 81.253	  1.13781	  0.66835	  0.47782	  1.20776	  0.07005	 -0.05432	  1.30197	705.24701	 23.70	
 16.996	 87.091	  1.13515	  0.60703	  0.53675	  1.21038	  0.06863	 -0.05357	  1.29832	705.27502	 23.70	
 16.996	 92.909	  1.13868	  0.54722	  0.59965	  1.21400	  0.06931	 -0.05261	  1.30219	705.34802	 23.70	
 17.008	 98.662	  1.13696	  0.48622	  0.65912	  1.20555	  0.07181	 -0.05163	  1.30044	705.34198	 23.70	
 16.988	104.517	  1.14066	  0.43352	  0.72365	  1.19142	  0.08500	 -0.05119	  1.30147	705.31897	 23.70	
 17.001	110.310	  1.14166	  0.38075	  0.78702	  1.16917	  0.10254	 -0.05222	  1.30097	705.46002	 23.70	
 17.002	116.134	  1.13807	  0.32653	  0.84267	  1.13737	  0.11615	 -0.05247	  1.29704	705.29498	 23.70	
 17.006	121.937	  1.13974	  0.28181	  0.90117	  1.10489	  0.14290	 -0.05436	  1.29885	705.43201	 23.70	
 17.001	127.699	  1.14124	  0.23918	  0.95715	  1.06578	  0.17177	 -0.05648	  1.29992	705.43298	 23.70	
 17.007	133.546	  1.14270	  0.20235	  1.00974	  1.02153	  0.20533	 -0.05510	  1.30176	705.44897	 23.70	
 17.014	139.343	  1.14049	  0.16325	  1.05408	  0.96871	  0.23970	 -0.05435	  1.29886	705.44702	 23.70	
 16.988	145.161	  1.14470	  0.13792	  1.09910	  0.91672	  0.28787	 -0.05218	  1.30279	705.38800	 23.70	
 16.995	150.919	  1.14520	  0.10927	  1.13528	  0.86044	  0.32864	 -0.05449	  1.30431	705.47198	 23.70	
 16.990	156.759	  1.14231	  0.08850	  1.16285	  0.79786	  0.37911	 -0.05496	  1.30236	705.44299	 23.70	
 17.000	162.596	  1.14143	  0.07468	  1.18384	  0.73544	  0.43238	 -0.05791	  1.30226	705.48297	 23.70	
 17.009	168.383	  1.13893	  0.06272	  1.19838	  0.67231	  0.48748	 -0.05651	  1.29981	705.54700	 23.70	
 16.990	174.179	  1.13844	  0.05972	  1.20758	  0.61270	  0.54751	 -0.05621	  1.30083	705.38702	 23.70	
 18.709	174.675	  1.09742	 -0.02046	  1.23788	  0.57503	  0.51147	 -0.05690	  1.30359	705.33099	 23.70	
 18.703	169.441	  1.09599	 -0.01477	  1.22765	  0.63412	  0.45470	 -0.05547	  1.30026	705.41199	 23.70	
 18.691	164.085	  1.10146	 -0.00327	  1.21832	  0.69989	  0.40082	 -0.05765	  1.30407	705.55902	 23.70	
 18.706	158.818	  1.10420	  0.01121	  1.20024	  0.76418	  0.34773	 -0.05567	  1.30672	705.42102	 23.70	
 18.695	153.537	  1.10294	  0.03133	  1.17016	  0.82261	  0.29905	 -0.05183	  1.30295	705.45099	 23.70	
 18.704	148.255	  1.10201	  0.05225	  1.13802	  0.88170	  0.25088	 -0.05269	  1.30273	705.47198	 23.70	
 18.698	142.952	  1.10208	  0.07671	  1.09932	  0.93814	  0.20606	 -0.05200	  1.30100	705.50500	 23.70	
 18.699	137.625	  1.11010	  0.10990	  1.06306	  0.99846	  0.16916	 -0.05363	  1.30978	705.50598	 23.70	
 18.705	132.343	  1.10263	  0.14342	  1.00832	  1.04150	  0.13209	 -0.05382	  1.30282	705.36499	 23.70	
 18.713	127.067	  1.09891	  0.18164	  0.95408	  1.08364	  0.10013	 -0.05130	  1.29814	705.41602	 23.70	
 18.700	121.794	  1.10322	  0.22293	  0.90192	  1.13003	  0.06986	 -0.04980	  1.30579	705.49103	 23.70	
 18.698	116.504	  1.09617	  0.26718	  0.83944	  1.15695	  0.04735	 -0.04814	  1.29679	705.48798	 23.70	
 18.707	111.165	  1.10065	  0.31911	  0.78228	  1.19193	  0.02801	 -0.04712	  1.30373	705.44000	 23.70	
 18.690	105.863	  1.09998	  0.36920	  0.71990	  1.21261	  0.01023	 -0.04622	  1.30184	705.50500	 23.70	
 18.696	100.583	  1.09780	  0.42496	  0.65639	  1.22593	  0.00188	 -0.04742	  1.29999	705.52301	 23.70	
 18.700	 95.309	  1.09558	  0.48121	  0.59391	  1.23484	 -0.00573	 -0.04822	  1.29811	705.55103	 23.70	
 18.700	 90.000	  1.10204	  0.54349	  0.53660	  1.24565	 -0.00876	 -0.04934	  1.30667	705.48499	 23.70	
 18.700	 84.691	  1.09411	  0.60084	  0.47285	  1.23361	 -0.00632	 -0.04921	  1.29644	705.40100	 23.70	
 18.696	 79.417	  1.09540	  0.66292	  0.41582	  1.22867	 -0.00355	 -0.04940	  1.29939	705.51300	 23.70	
 18.690	 74.137	  1.09580	  0.72271	  0.36017	  1.21446	  0.00481	 -0.04965	  1.30045	705.52301	 23.70	
 18.707	 68.835	  1.09648	  0.78525	  0.30704	  1.19554	  0.01631	 -0.05105	  1.30314	705.48199	 23.70	
 18.698	 63.496	  1.09228	  0.84434	  0.25500	  1.16367	  0.03393	 -0.04681	  1.30027	705.53101	 23.70	
 18.700	 58.206	  1.09476	  0.90378	  0.20959	  1.13265	  0.05597	 -0.04689	  1.30174	705.51599	 23.70	
 18.713	 52.933	  1.09514	  0.95976	  0.16704	  1.09615	  0.07929	 -0.04732	  1.30408	705.53101	 23.70	
 18.705	 47.657	  1.09452	  1.01141	  0.12782	  1.05111	  0.10913	 -0.04620	  1.30367	705.53101	 23.70	
 18.699	 42.375	  1.09196	  1.05799	  0.09161	  1.00182	  0.14078	 -0.04673	  1.30296	705.59497	 23.70	
 18.698	 37.048	  1.09052	  1.10169	  0.06023	  0.94752	  0.17737	 -0.04500	  1.30209	705.60602	 23.70	
 18.704	 31.745	  1.09290	  1.14223	  0.03395	  0.89414	  0.21978	 -0.04416	  1.30543	705.53003	 23.70	
 18.695	 26.463	  1.08966	  1.17400	  0.00848	  0.83414	  0.26261	 -0.04004	  1.30363	705.60901	 23.80	
 18.706	 21.182	  1.08538	  1.19765	 -0.01160	  0.77071	  0.30914	 -0.03859	  1.29933	705.70300	 23.70	
 18.691	 15.915	  1.08575	  1.21779	 -0.02411	  0.71012	  0.35958	 -0.03655	  1.30017	705.61298	 23.70	
 18.703	 10.559	  1.08449	  1.23401	 -0.03802	  0.64574	  0.41326	 -0.03826	  1.30073	705.49200	 23.70	
 18.709	  5.325	  1.08478	  1.24317	 -0.04444	  0.58626	  0.46932	 -0.03873	  1.30141	705.56097	 23.70	
 18.700	  0.000	  1.08259	  1.24488	 -0.04816	  0.52189	  0.52708	 -0.04027	  1.29961	705.61798	 23.80	
 18.709	 -5.325	  1.08288	  1.24253	 -0.04804	  0.46231	  0.58758	 -0.03978	  1.30067	705.70001	 23.80	
 18.703	-10.559	  1.08229	  1.23379	 -0.04382	  0.40539	  0.64700	 -0.03874	  1.30146	705.69598	 23.80	
 18.691	-15.915	  1.08299	  1.22010	 -0.03450	  0.34674	  0.71136	 -0.03899	  1.30252	705.68500	 23.80	
 18.706	-21.182	  1.07683	  1.19360	 -0.02317	  0.29358	  0.76572	 -0.04141	  1.29582	705.59802	 23.80	
 18.695	-26.463	  1.07697	  1.16714	 -0.00575	  0.24390	  0.82577	 -0.04209	  1.29709	705.56702	 23.80	
 18.704	-31.745	  1.08105	  1.13871	  0.01343	  0.19702	  0.88725	 -0.04215	  1.30201	705.66199	 23.80	
 18.698	-37.048	  1.08124	  1.09920	  0.04038	  0.15538	  0.94313	 -0.04433	  1.30104	705.67102	 23.80	
 18.699	-42.375	  1.07781	  1.05230	  0.06964	  0.11445	  0.99449	 -0.04556	  1.29801	705.58197	 23.80	
 18.705	-47.657	  1.08022	  1.00855	  0.10095	  0.07906	  1.04561	 -0.04383	  1.30240	705.65997	 23.80	
 18.713	-52.933	  1.08111	  0.95668	  0.13762	  0.04654	  1.09118	 -0.04354	  1.30388	705.64099	 23.80	
 18.700	-58.206	  1.07595	  0.89644	  0.17788	  0.02006	  1.12495	 -0.04160	  1.29625	705.62299	 23.80	
 18.698	-63.496	  1.07878	  0.84117	  0.22329	 -0.00352	  1.16303	 -0.04244	  1.30029	705.64899	 23.80	
 18.707	-68.835	  1.07838	  0.77884	  0.27161	 -0.02387	  1.19191	 -0.04316	  1.29942	705.57300	 23.80	
 18.690	-74.137	  1.08289	  0.72047	  0.32506	 -0.03546	  1.21708	 -0.04369	  1.30228	705.76202	 23.80	
 18.696	-79.417	  1.07921	  0.65649	  0.37864	 -0.04693	  1.22894	 -0.04488	  1.29883	705.78699	 23.80	
 18.700	-84.691	  1.08354	  0.59771	  0.43599	 -0.05557	  1.24630	 -0.04660	  1.30357	705.60901	 23.80	
 18.700	-90.000	  1.08231	  0.53690	  0.49481	 -0.05735	  1.24929	 -0.04935	  1.30269	705.63800	 23.80	
 18.700	-95.309	  1.08162	  0.47480	  0.55673	 -0.05732	  1.24810	 -0.05252	  1.30253	705.56201	 23.80	
 18.696	-100.583	  1.08064	  0.41775	  0.61755	 -0.05077	  1.24004	 -0.05431	  1.30045	705.55902	 23.80	
 18.690	-105.863	  1.08258	  0.36318	  0.68102	 -0.04071	  1.22912	 -0.05735	  1.30197	705.55402	 23.80	
 18.707	-111.165	  1.08476	  0.31068	  0.74490	 -0.02715	  1.21363	 -0.05782	  1.30571	705.65399	 23.80	
 18.698	-116.504	  1.07906	  0.25837	  0.80284	 -0.01066	  1.18238	 -0.05946	  1.29881	705.63202	 23.80	
 18.700	-121.794	  1.08073	  0.21336	  0.86456	  0.01304	  1.15375	 -0.06084	  1.30093	705.65503	 23.80	
 18.713	-127.067	  1.08058	  0.17213	  0.92071	  0.03992	  1.11810	 -0.06004	  1.30028	705.73401	 23.80	
 18.705	-132.343	  1.08513	  0.13541	  0.97860	  0.07189	  1.07992	 -0.06326	  1.30442	705.63397	 23.80	
 18.699	-137.625	  1.08798	  0.10243	  1.03071	  0.10791	  1.03457	 -0.06433	  1.30584	705.68298	 23.80	
 18.698	-142.952	  1.08779	  0.07186	  1.07687	  0.14498	  0.98473	 -0.06430	  1.30534	705.68799	 23.80	
 18.704	-148.255	  1.08747	  0.04537	  1.11695	  0.18882	  0.92919	 -0.06327	  1.30395	705.63202	 23.80	
 18.695	-153.537	  1.08886	  0.02500	  1.15260	  0.23538	  0.87358	 -0.06190	  1.30404	705.52698	 23.80	
 18.706	-158.818	  1.08684	  0.00482	  1.18057	  0.28378	  0.81208	 -0.06017	  1.30036	705.53699	 23.80	
 18.691	-164.085	  1.09073	 -0.00720	  1.20580	  0.33736	  0.75404	 -0.06005	  1.30360	705.57599	 23.80	
 18.703	-169.441	  1.09378	 -0.01638	  1.22513	  0.39518	  0.69327	 -0.06139	  1.30447	705.67200	 23.80	
 18.709	-174.675	  1.09431	 -0.02294	  1.23526	  0.45063	  0.63366	 -0.05907	  1.30342	705.49103	 23.80	
 18.700	180.000	  1.09633	 -0.02355	  1.23967	  0.51188	  0.57246	 -0.05744	  1.30341	705.64001	 23.80	
 20.400	180.000	  1.04631	 -0.10544	  1.25982	  0.46874	  0.53148	 -0.05591	  1.30066	705.58197	 23.80	
 20.401	-175.153	  1.04533	 -0.10548	  1.25852	  0.40880	  0.59032	 -0.05431	  1.30326	705.66498	 23.80	
 20.407	-170.264	  1.04366	 -0.10114	  1.24863	  0.35031	  0.65118	 -0.05569	  1.30352	705.55902	 23.80	
 20.410	-165.423	  1.04248	 -0.09266	  1.23304	  0.29492	  0.71268	 -0.05738	  1.30382	705.65997	 23.80	
 20.392	-160.496	  1.03915	 -0.07991	  1.20864	  0.23950	  0.77343	 -0.05688	  1.30156	705.43201	 23.80	
 20.401	-155.705	  1.04043	 -0.06412	  1.18362	  0.19077	  0.83430	 -0.05700	  1.30502	705.59497	 23.90	
 20.405	-150.835	  1.03957	 -0.04607	  1.15139	  0.14244	  0.89313	 -0.05986	  1.30531	705.55298	 23.90	
 20.397	-145.903	  1.03919	 -0.02179	  1.11283	  0.10015	  0.94855	 -0.06022	  1.30611	705.57800	 23.90	
 20.392	-141.062	  1.03610	  0.00559	  1.06561	  0.05842	  1.00004	 -0.06025	  1.30288	705.69397	 23.90	
 20.396	-136.227	  1.03543	  0.03478	  1.01901	  0.02269	  1.04912	 -0.06137	  1.30370	705.67999	 23.90	
 20.408	-131.372	  1.03353	  0.06795	  0.96563	 -0.01304	  1.09541	 -0.06086	  1.30347	705.66901	 23.90	
 20.410	-126.511	  1.03497	  0.10666	  0.91280	 -0.03947	  1.13481	 -0.05934	  1.30438	705.59900	 23.90	
 20.400	-121.604	  1.03069	  0.14754	  0.85024	 -0.06573	  1.16719	 -0.05712	  1.29912	705.61298	 23.90	
 20.403	-116.741	  1.03599	  0.19354	  0.79457	 -0.08883	  1.20505	 -0.05510	  1.30698	705.67200	 23.90	
 20.413	-111.900	  1.02793	  0.23899	  0.72811	 -0.10676	  1.22084	 -0.05419	  1.29712	705.73297	 23.90	
 20.398	-107.004	  1.02860	  0.29110	  0.66524	 -0.12009	  1.24077	 -0.05168	  1.29735	705.62402	 23.90	
 20.394	-102.132	  1.02614	  0.34517	  0.59999	 -0.13104	  1.25342	 -0.04973	  1.29555	705.70599	 23.90	
 20.403	-97.332	  1.02765	  0.39993	  0.54027	 -0.13834	  1.26352	 -0.04902	  1.29810	705.65399	 23.90	
 20.392	-92.440	  1.02772	  0.45910	  0.47897	 -0.14176	  1.26717	 -0.04703	  1.29815	705.71100	 23.90	
 20.392	-87.560	  1.03120	  0.52191	  0.41885	 -0.14189	  1.26921	 -0.04362	  1.30273	705.71100	 23.90	
 20.403	-82.668	  1.02969	  0.58405	  0.35884	 -0.13747	  1.26091	 -0.04256	  1.30067	705.72498	 23.90	
 20.394	-77.868	  1.02740	  0.64243	  0.30599	 -0.12857	  1.24579	 -0.04128	  1.29786	705.61798	 23.90	
 20.398	-72.996	  1.03005	  0.70680	  0.25163	 -0.11860	  1.23115	 -0.04111	  1.30237	705.66498	 23.90	
 20.413	-68.100	  1.03007	  0.76852	  0.20187	 -0.10201	  1.20735	 -0.04136	  1.30123	705.64600	 23.90	
 20.403	-63.259	  1.03081	  0.82883	  0.15528	 -0.08340	  1.17922	 -0.04190	  1.30219	705.67200	 23.90	
 20.400	-58.396	  1.03190	  0.88802	  0.11159	 -0.06160	  1.14621	 -0.04091	  1.30342	705.61298	 23.90	
 20.410	-53.489	  1.02704	  0.94132	  0.07017	 -0.03469	  1.10147	 -0.03976	  1.29823	705.75800	 23.90	
 20.408	-48.628	  1.02562	  0.99315	  0.03320	 -0.00481	  1.05583	 -0.03907	  1.29661	705.74402	 23.90	
 20.396	-43.773	  1.03114	  1.04657	  0.00228	  0.03137	  1.01132	 -0.03885	  1.30092	705.66199	 23.90	
 20.392	-38.938	  1.03271	  1.09367	 -0.02735	  0.06823	  0.96047	 -0.04070	  1.30275	705.83801	 23.90	
 20.397	-34.097	  1.03222	  1.13431	 -0.05355	  0.10893	  0.90551	 -0.04020	  1.30305	705.85400	 23.90	
 20.405	-29.165	  1.03236	  1.17146	 -0.07680	  0.15320	  0.84719	 -0.03970	  1.30289	705.86902	 23.90	
 20.401	-24.295	  1.03441	  1.20113	 -0.09151	  0.20356	  0.78859	 -0.03787	  1.30313	705.84900	 23.90	
 20.392	-19.504	  1.03219	  1.22487	 -0.10893	  0.25236	  0.72639	 -0.03792	  1.30106	705.78900	 23.90	
 20.410	-14.577	  1.03398	  1.24489	 -0.11939	  0.30728	  0.66614	 -0.03954	  1.30213	705.89001	 23.90	
 20.407	 -9.736	  1.03473	  1.25864	 -0.12688	  0.36469	  0.60444	 -0.03830	  1.30244	705.90698	 23.90	
 20.401	 -4.847	  1.03085	  1.26122	 -0.13022	  0.42088	  0.54086	 -0.03771	  1.29728	705.94501	 23.90	
 20.400	  0.000	  1.03469	  1.26760	 -0.13114	  0.48041	  0.48547	 -0.03561	  1.30083	705.81799	 23.90	
 20.401	  4.847	  1.03320	  1.26515	 -0.12975	  0.54054	  0.42568	 -0.03498	  1.29985	705.90698	 23.90	
 20.407	  9.736	  1.03838	  1.26055	 -0.12202	  0.60699	  0.37028	 -0.03507	  1.30440	705.85101	 23.90	
 20.410	 14.577	  1.03450	  1.24201	 -0.11103	  0.66632	  0.31643	 -0.03545	  1.29860	705.79303	 23.90	
 20.392	 19.504	  1.03907	  1.22607	 -0.09675	  0.73212	  0.26508	 -0.03660	  1.30200	705.88202	 23.90	
 20.401	 24.295	  1.03856	  1.20064	 -0.07878	  0.79041	  0.21864	 -0.03721	  1.30047	705.77802	 23.90	
 20.405	 29.165	  1.03863	  1.17046	 -0.05982	  0.85134	  0.17130	 -0.03621	  1.30077	705.84302	 23.90	
 20.397	 34.097	  1.03911	  1.13387	 -0.03496	  0.91174	  0.12735	 -0.04005	  1.30110	705.80103	 23.90	
 20.392	 38.938	  1.03899	  1.09146	 -0.00534	  0.96373	  0.09168	 -0.04175	  1.29762	705.92401	 23.90	
 20.396	 43.773	  1.04210	  1.04843	  0.02583	  1.01721	  0.05765	 -0.04539	  1.29990	705.80298	 23.90	
 20.408	 48.628	  1.04139	  0.99830	  0.06076	  1.06583	  0.02473	 -0.04434	  1.29974	705.78101	 23.90	
 20.410	 53.489	  1.04379	  0.94852	  0.09791	  1.11083	 -0.00387	 -0.04503	  1.30296	705.88300	 23.90	
 20.400	 58.396	  1.04419	  0.89035	  0.14279	  1.14875	 -0.02626	 -0.04152	  1.30067	705.82098	 23.90	
 20.403	 63.259	  1.04344	  0.83181	  0.18666	  1.18095	 -0.04681	 -0.04237	  1.29947	705.74799	 24.00	
 20.413	 68.100	  1.04510	  0.77235	  0.23703	  1.20850	 -0.06266	 -0.04224	  1.29958	705.77802	 23.90	
 20.398	 72.996	  1.04483	  0.71025	  0.28925	  1.22964	 -0.07448	 -0.04705	  1.29842	705.85199	 23.90	
 20.394	 77.868	  1.04535	  0.64960	  0.34337	  1.24561	 -0.08442	 -0.04515	  1.29833	705.87598	 23.90	
 20.403	 82.668	  1.04569	  0.58859	  0.39949	  1.25643	 -0.09095	 -0.04641	  1.29796	705.81403	 23.90	
 20.392	 87.560	  1.04600	  0.52741	  0.45950	  1.26111	 -0.09266	 -0.04475	  1.29817	705.96100	 23.90	
 20.392	 92.440	  1.04753	  0.46875	  0.52016	  1.26128	 -0.09065	 -0.04247	  1.29865	705.93597	 23.90	
 20.403	 97.332	  1.05228	  0.41150	  0.58455	  1.26000	 -0.08565	 -0.04410	  1.30309	705.89001	 23.90	
 20.394	102.132	  1.05030	  0.35642	  0.64539	  1.24395	 -0.07491	 -0.04342	  1.29888	705.89600	 23.90	
 20.398	107.004	  1.04977	  0.30178	  0.70736	  1.22527	 -0.06231	 -0.04144	  1.29770	705.95001	 23.90	
 20.413	111.900	  1.05241	  0.24991	  0.77116	  1.20613	 -0.04813	 -0.04132	  1.30188	705.91302	 24.00	
 20.403	116.741	  1.05316	  0.20429	  0.83020	  1.17634	 -0.02835	 -0.04451	  1.30044	705.83698	 24.00	
 20.400	121.604	  1.05106	  0.15826	  0.88707	  1.14005	 -0.00582	 -0.04500	  1.29854	705.88202	 24.00	
 20.410	126.511	  1.05216	  0.11571	  0.94486	  1.10046	  0.02102	 -0.04496	  1.29983	705.87701	 24.00	
 20.408	131.372	  1.05262	  0.07884	  0.99781	  1.05597	  0.05225	 -0.04835	  1.29885	705.88300	 24.00	
 20.396	136.227	  1.05125	  0.04461	  1.04529	  1.00515	  0.08610	 -0.04804	  1.29646	705.80103	 24.00	
 20.392	141.062	  1.05516	  0.01494	  1.09268	  0.95671	  0.12355	 -0.04721	  1.30081	705.83698	 23.90	
 20.397	145.903	  1.05581	 -0.01249	  1.13420	  0.90143	  0.16483	 -0.04923	  1.30160	705.91302	 24.00	
 20.405	150.835	  1.05557	 -0.03737	  1.17173	  0.84201	  0.21058	 -0.04849	  1.30310	705.81799	 23.90	
 20.401	155.705	  1.05306	 -0.05618	  1.19731	  0.77966	  0.25723	 -0.05046	  1.29930	705.82098	 23.90	
 20.392	160.496	  1.05521	 -0.07426	  1.22571	  0.72169	  0.30586	 -0.05049	  1.30419	705.92200	 23.90	
 20.410	165.423	  1.04850	 -0.08693	  1.23831	  0.65436	  0.35892	 -0.05258	  1.29845	705.79797	 24.00	
 20.407	170.264	  1.05234	 -0.09741	  1.25581	  0.59381	  0.41606	 -0.05394	  1.30358	705.76202	 24.00	
 20.401	175.153	  1.05137	 -0.10280	  1.26313	  0.53240	  0.47263	 -0.05411	  1.30466	705.73102	 23.90	
  0.141	 45.000	  1.30690	  0.73932	  0.72470	  0.72977	  0.74510	  0.00841	  1.29808	705.78302	 24.00	
  4.001	128.691	  1.30947	  0.64139	  0.80195	  0.82214	  0.63561	  0.00327	  1.30445	705.90002	 23.90	
  4.002	 76.995	  1.30874	  0.75813	  0.67810	  0.85383	  0.60607	  0.00358	  1.30441	705.95300	 23.90	
  4.002	 25.892	  1.30554	  0.85902	  0.58332	  0.76981	  0.67080	  0.00292	  1.30105	705.90698	 23.90	
  4.002	-25.892	  1.30934	  0.86035	  0.58289	  0.64595	  0.79672	  0.00074	  1.30605	705.33002	 23.90	
  4.002	-76.995	  1.30665	  0.75714	  0.66901	  0.57188	  0.87962	  0.00018	  1.30179	704.24701	 23.90	
  4.001	-128.691	  1.30642	  0.63722	  0.79663	  0.59643	  0.85352	  0.00038	  1.30244	704.30298	 23.90	
  4.000	180.000	  1.31051	  0.59183	  0.85928	  0.70581	  0.74249	  0.00247	  1.30578	705.81799	 23.90	
  8.000	180.000	  1.28321	  0.41962	  0.99177	  0.67164	  0.71696	 -0.01255	  1.30356	705.96698	 23.90	
  7.991	-152.370	  1.27777	  0.44650	  0.94834	  0.53584	  0.85367	 -0.01559	  1.30007	705.89301	 24.00	
  7.997	-124.550	  1.28128	  0.53356	  0.84412	  0.43916	  0.96622	 -0.01719	  1.30441	705.83502	 24.00	
  8.006	-96.837	  1.27789	  0.65833	  0.70281	  0.39494	  1.01385	 -0.01842	  1.30035	705.93903	 24.00	
  7.988	-69.228	  1.27885	  0.80150	  0.56483	  0.41199	  0.99062	 -0.01983	  1.30201	705.93103	 24.00	
  7.997	-41.563	  1.27626	  0.92305	  0.45780	  0.48404	  0.89984	 -0.01722	  1.29929	705.88501	 24.00	
  8.008	-13.821	  1.27724	  0.99581	  0.40299	  0.60679	  0.76652	 -0.01611	  1.30103	705.89301	 24.00	
  8.008	 13.821	  1.28035	  0.99807	  0.40597	  0.75098	  0.62853	 -0.01323	  1.30322	705.94202	 24.00	
  7.997	 41.563	  1.27983	  0.92455	  0.46711	  0.88194	  0.51528	 -0.01141	  1.30051	705.89301	 24.00	
  7.988	 69.228	  1.27845	  0.79966	  0.57705	  0.96888	  0.44533	 -0.01171	  1.29736	705.36401	 24.00	
  8.006	 96.837	  1.28193	  0.66006	  0.71763	  0.98668	  0.43716	 -0.01013	  1.29964	705.95599	 24.00	
  7.997	124.550	  1.28287	  0.53555	  0.85591	  0.93237	  0.48380	 -0.01094	  1.30100	705.61700	 24.00	
  7.991	152.370	  1.28280	  0.45162	  0.95469	  0.81309	  0.58478	 -0.01166	  1.30075	705.70801	 23.90	
 12.009	161.059	  1.23287	  0.26515	  1.07965	  0.77021	  0.53472	 -0.03405	  1.30079	706.07898	 23.90	
 12.013	142.081	  1.23334	  0.32322	  1.00490	  0.91006	  0.41442	 -0.03193	  1.30046	705.05798	 24.00	
 12.006	123.113	  1.23289	  0.41780	  0.89035	  1.02193	  0.32555	 -0.03315	  1.30075	706.12799	 24.00	
 12.007	104.200	  1.23400	  0.54290	  0.74911	  1.08967	  0.27385	 -0.03429	  1.30235	706.09698	 23.90	
 11.989	 85.301	  1.23309	  0.68478	  0.60118	  1.10426	  0.26011	 -0.03266	  1.30154	704.50702	 23.90	
 12.013	 66.294	  1.23327	  0.83296	  0.46379	  1.06753	  0.28421	 -0.03283	  1.30411	706.00299	 23.90	
 12.012	 47.388	  1.23171	  0.96344	  0.34989	  0.97845	  0.34905	 -0.03200	  1.30433	706.03198	 23.90	
 11.990	 28.440	  1.22499	  1.05566	  0.26901	  0.84946	  0.44548	 -0.03431	  1.29822	704.72900	 24.00	
 11.991	  9.464	  1.22544	  1.10876	  0.22840	  0.70436	  0.57367	 -0.03443	  1.30073	704.27802	 24.00	
 11.991	 -9.464	  1.22748	  1.11262	  0.22370	  0.55821	  0.71776	 -0.03687	  1.30505	704.13202	 24.00	
 11.990	-28.440	  1.22535	  1.05861	  0.26043	  0.42502	  0.86192	 -0.03730	  1.30321	705.16199	 23.90	
 12.012	-47.388	  1.22407	  0.96101	  0.33268	  0.31819	  0.98787	 -0.03830	  1.30333	704.22998	 24.00	
 12.013	-66.294	  1.22408	  0.83006	  0.44130	  0.24770	  1.07859	 -0.04311	  1.30285	704.37701	 24.00	
 11.989	-85.301	  1.22617	  0.68344	  0.57810	  0.21849	  1.12343	 -0.04265	  1.30506	705.78998	 24.00	
 12.007	-104.200	  1.22422	  0.53866	  0.72526	  0.22552	  1.11319	 -0.04318	  1.30156	704.30103	 24.00	
 12.006	-123.113	  1.22406	  0.41398	  0.86871	  0.27209	  1.05578	 -0.04046	  1.30168	704.40503	 23.90	
 12.013	-142.081	  1.22614	  0.32113	  0.99030	  0.35992	  0.95355	 -0.03796	  1.30234	704.36200	 24.00	
 12.009	-161.059	  1.22835	  0.26409	  1.07244	  0.48088	  0.81897	 -0.03797	  1.30164	705.84900	 24.00	
 16.000	180.000	  1.15979	  0.08447	  1.19338	  0.56281	  0.61953	 -0.05724	  1.30453	706.10199	 24.00	
 15.990	-165.604	  1.15505	  0.09753	  1.16862	  0.42363	  0.76247	 -0.06102	  1.30349	706.02899	 24.00	
 16.002	-151.165	  1.15139	  0.14033	  1.10276	  0.30125	  0.90295	 -0.06100	  1.30195	705.90698	 24.00	
 16.002	-136.836	  1.15001	  0.20739	  1.00510	  0.20091	  1.02619	 -0.06132	  1.30409	704.44702	 24.00	
 15.995	-122.439	  1.15196	  0.30397	  0.87966	  0.12893	  1.12318	 -0.06130	  1.30515	706.12500	 24.00	
 15.993	-107.966	  1.14952	  0.41993	  0.73545	  0.07895	  1.18464	 -0.06167	  1.30389	706.02600	 24.00	
 16.005	-93.629	  1.14645	  0.55263	  0.58879	  0.06082	  1.20685	 -0.05674	  1.30129	705.07800	 24.00	
 15.992	-79.234	  1.14761	  0.69702	  0.44740	  0.06497	  1.19423	 -0.05169	  1.30323	704.41400	 24.00	
 16.009	-64.774	  1.14538	  0.83993	  0.32107	  0.10159	  1.13906	 -0.05013	  1.30071	704.41302	 24.00	
 15.997	-50.364	  1.14645	  0.97214	  0.21751	  0.16609	  1.04982	 -0.05311	  1.30144	706.09698	 24.00	
 15.997	-36.045	  1.15139	  1.08502	  0.13617	  0.25205	  0.93789	 -0.04781	  1.30747	706.08197	 24.00	
 16.000	-21.597	  1.14696	  1.15751	  0.08526	  0.36729	  0.79696	 -0.04626	  1.30170	704.78400	 24.00	
 16.003	 -7.169	  1.15280	  1.20154	  0.06382	  0.50420	  0.65563	 -0.04682	  1.30670	706.12701	 24.00	
 16.003	  7.169	  1.15288	  1.20161	  0.06600	  0.64832	  0.51430	 -0.04663	  1.30553	704.48401	 24.00	
 16.000	 21.597	  1.15069	  1.15789	  0.09577	  0.79342	  0.38377	 -0.04600	  1.30061	704.43799	 24.00	
 15.997	 36.045	  1.15418	  1.08377	  0.14965	  0.93057	  0.27424	 -0.04680	  1.30256	704.42999	 23.90	
 15.997	 50.364	  1.15658	  0.97546	  0.23496	  1.05152	  0.19047	 -0.05011	  1.30496	705.66302	 24.00	
 16.009	 64.774	  1.15796	  0.84276	  0.34382	  1.13723	  0.13122	 -0.05059	  1.30348	704.36200	 24.00	
 15.992	 79.234	  1.15908	  0.69694	  0.47354	  1.18643	  0.09965	 -0.05243	  1.30362	704.32397	 24.00	
 16.005	 93.629	  1.16075	  0.55344	  0.61556	  1.19760	  0.09468	 -0.05358	  1.30481	704.51501	 24.00	
 15.993	107.966	  1.16114	  0.41608	  0.76248	  1.16412	  0.11688	 -0.05127	  1.30274	704.90100	 24.00	
 15.995	122.439	  1.16315	  0.30058	  0.90538	  1.09191	  0.17240	 -0.05271	  1.30319	706.14203	 24.00	
 16.002	136.836	  1.16200	  0.20577	  1.02712	  0.98509	  0.25198	 -0.05273	  1.30161	704.33197	 24.00	
 16.002	151.165	  1.16428	  0.13629	  1.12163	  0.85659	  0.35309	 -0.05233	  1.30489	705.69299	 24.00	
 15.990	165.604	  1.16258	  0.09316	  1.17870	  0.70885	  0.47844	 -0.05685	  1.30543	705.73401	 24.00	
 20.003	168.362	  1.06367	 -0.07563	  1.24715	  0.62589	  0.40569	 -0.05521	  1.30458	705.55103	 24.00	
 20.008	156.764	  1.06972	 -0.04428	  1.20819	  0.77464	  0.28366	 -0.05173	  1.30830	704.49298	 24.00	
 20.000	145.147	  1.06670	  0.00676	  1.12771	  0.91194	  0.17329	 -0.05009	  1.30354	704.50098	 24.00	
 19.995	133.545	  1.06594	  0.08033	  1.02197	  1.03403	  0.08671	 -0.04989	  1.30008	704.49500	 24.00	
 20.009	121.926	  1.06728	  0.17230	  0.89741	  1.14010	  0.01573	 -0.04819	  1.30392	704.45203	 24.00	
 20.005	110.327	  1.06638	  0.28242	  0.75812	  1.21172	 -0.03290	 -0.04328	  1.30392	704.38800	 24.00	
 19.989	 98.733	  1.06672	  0.40815	  0.61361	  1.25424	 -0.06239	 -0.04348	  1.30613	704.60400	 24.00	
 19.999	 87.075	  1.06598	  0.54769	  0.46858	  1.26502	 -0.07241	 -0.04636	  1.30813	704.44702	 24.00	
 19.992	 75.457	  1.06039	  0.68874	  0.33175	  1.23558	 -0.05918	 -0.04526	  1.30078	704.62500	 24.00	
 20.009	 63.844	  1.05966	  0.82982	  0.21157	  1.18508	 -0.02914	 -0.04406	  1.30425	704.59100	 24.00	
 19.989	 52.269	  1.05970	  0.96456	  0.10837	  1.10084	  0.02402	 -0.04609	  1.30565	706.21503	 24.00	
 19.999	 40.602	  1.05642	  1.07920	  0.02470	  0.98735	  0.09867	 -0.04435	  1.30397	706.28003	 24.00	
 20.004	 29.051	  1.05213	  1.16975	 -0.04034	  0.85473	  0.19020	 -0.03909	  1.30302	704.49200	 24.00	
 20.005	 17.433	  1.05179	  1.23304	 -0.08532	  0.71320	  0.30028	 -0.03430	  1.30579	704.67297	 24.00	
 20.006	  5.780	  1.04982	  1.26168	 -0.10726	  0.56512	  0.42827	 -0.03950	  1.30444	706.21997	 24.00	
 20.006	 -5.780	  1.04857	  1.26323	 -0.11162	  0.42239	  0.56618	 -0.03773	  1.30535	706.02899	 24.00	
 20.005	-17.433	  1.04905	  1.23437	 -0.09493	  0.28993	  0.71119	 -0.03759	  1.30780	706.07703	 24.00	
 20.004	-29.051	  1.04676	  1.17127	 -0.05757	  0.17170	  0.85111	 -0.03827	  1.30614	704.57898	 24.00	
 19.999	-40.602	  1.04642	  1.08052	 -0.00043	  0.07216	  0.98189	 -0.04084	  1.30593	704.61102	 24.00	
 19.989	-52.269	  1.04905	  0.96503	  0.08006	 -0.00653	  1.09839	 -0.04217	  1.30960	704.49200	 24.00	
 20.009	-63.844	  1.04625	  0.82980	  0.17724	 -0.06443	  1.18225	 -0.04395	  1.30627	704.34100	 24.00	
 19.992	-75.457	  1.04191	  0.68271	  0.29270	 -0.10279	  1.23611	 -0.03853	  1.30083	704.58698	 24.00	
 19.999	-87.075	  1.04738	  0.53922	  0.42941	 -0.11929	  1.26813	 -0.04446	  1.30637	704.51099	 24.00	
 19.989	-98.733	  1.04735	  0.40049	  0.57041	 -0.11518	  1.26529	 -0.05054	  1.30548	704.51801	 24.00	
 20.005	-110.327	  1.04503	  0.27138	  0.71709	 -0.09226	  1.23032	 -0.05431	  1.30344	704.45203	 24.00	
 20.009	-121.926	  1.04412	  0.16227	  0.85793	 -0.04623	  1.16551	 -0.05740	  1.30111	705.65198	 24.00	
 19.995	-133.545	  1.04555	  0.07079	  0.98952	  0.02165	  1.07349	 -0.06121	  1.30196	704.60400	 24.00	
 20.000	-145.147	  1.04945	 -0.00059	  1.10206	  0.10886	  0.95921	 -0.06142	  1.30525	704.48602	 24.00	
 20.008	-156.764	  1.05323	 -0.04885	  1.18779	  0.21747	  0.82634	 -0.05649	  1.30623	704.43402	 24.00	
 20.003	-168.362	  1.05566	 -0.07725	  1.23827	  0.34191	  0.68458	 -0.05659	  1.30416	704.66998	 24.00	
 20.000	180.000	  1.06136	 -0.08615	  1.25893	  0.48118	  0.54311	 -0.05482	  1.30515	704.56201	 24.00	
