FileType=PCF
NHL=14
Date=08/28/17	11:15:47
Facility=APL
Serial=16328-10
Customer=NASA
NP=6
Mach=0.050000
Calibration=1:1
CalPts=490
TstPts=95
PortNumbering=AP Standard
Units=Torr C m/s kg/m^3 deg mm 
Theta[deg]	Phi[deg]	P1[Torr]	P2[Torr]	P3[Torr]	P4[Torr]	P5[Torr]	P6[Torr]	Pt[Torr]	Ps[Abs,Torr]	Ts[C]	
  0.000	  0.000	  1.29734	  0.73137	  0.72885	  0.72768	  0.73913	  0.00867	  1.28958	708.34698	 23.80	
  1.691	128.401	  1.28608	  0.69345	  0.74724	  0.74844	  0.69766	  0.00794	  1.27860	708.43402	 23.80	
  1.692	 77.194	  1.28716	  0.73232	  0.70833	  0.75793	  0.69106	  0.00760	  1.27924	708.30798	 23.80	
  1.699	 26.182	  1.28917	  0.77105	  0.67323	  0.73113	  0.71353	  0.00692	  1.28218	708.42603	 23.80	
  1.699	-26.182	  1.29178	  0.77358	  0.67084	  0.68568	  0.76289	  0.00703	  1.28494	708.44897	 23.80	
  1.692	-77.194	  1.29087	  0.73264	  0.70458	  0.65835	  0.79302	  0.00695	  1.28367	708.44897	 23.80	
  1.691	-128.401	  1.29323	  0.69070	  0.75125	  0.66871	  0.78285	  0.00654	  1.28661	708.35400	 23.80	
  1.700	180.000	  1.29292	  0.67352	  0.77378	  0.71090	  0.73734	  0.00808	  1.28574	708.40601	 23.80	
  3.400	180.000	  1.29167	  0.60682	  0.83524	  0.70244	  0.73381	  0.00462	  1.28661	708.45099	 23.80	
  3.388	-152.325	  1.29422	  0.61725	  0.82233	  0.64999	  0.79103	  0.00282	  1.28954	708.27802	 23.80	
  3.397	-124.529	  1.29652	  0.65441	  0.78289	  0.61235	  0.83726	  0.00362	  1.29314	708.33899	 23.80	
  3.399	-96.763	  1.29394	  0.70339	  0.72740	  0.59348	  0.85783	  0.00230	  1.28979	708.42102	 23.80	
  3.394	-69.283	  1.29325	  0.75916	  0.67085	  0.59939	  0.84949	  0.00164	  1.28945	708.36499	 23.80	
  3.400	-41.398	  1.29366	  0.81000	  0.62540	  0.62673	  0.81727	  0.00079	  1.28867	708.46802	 23.80	
  3.401	-14.021	  1.29640	  0.84009	  0.60529	  0.67608	  0.76705	  0.00159	  1.29193	708.42102	 23.80	
  3.401	 14.021	  1.29349	  0.84032	  0.60531	  0.73228	  0.70857	  0.00443	  1.28877	708.28497	 23.80	
  3.400	 41.398	  1.29347	  0.81242	  0.62828	  0.78345	  0.66104	  0.00354	  1.28908	708.42999	 23.80	
  3.394	 69.283	  1.29321	  0.76257	  0.67350	  0.81713	  0.63277	  0.00469	  1.28843	708.28802	 23.80	
  3.399	 96.763	  1.29512	  0.70891	  0.72885	  0.82620	  0.62916	  0.00518	  1.28933	708.40302	 23.80	
  3.397	124.529	  1.29562	  0.65850	  0.78341	  0.80611	  0.64518	  0.00434	  1.29031	708.16400	 23.80	
  3.388	152.325	  1.29756	  0.62373	  0.82430	  0.76197	  0.68429	  0.00456	  1.29189	708.31097	 23.80	
  5.099	161.165	  1.28587	  0.54808	  0.88362	  0.75507	  0.66752	 -0.00103	  1.28627	708.35797	 23.80	
  5.109	142.013	  1.29022	  0.57728	  0.85530	  0.81142	  0.62063	 -0.00085	  1.29022	708.41302	 23.80	
  5.095	123.033	  1.29204	  0.62054	  0.80936	  0.85574	  0.58602	 -0.00060	  1.29191	708.32001	 23.80	
  5.105	104.191	  1.28915	  0.67042	  0.75193	  0.88007	  0.56388	 -0.00091	  1.28895	708.29401	 23.80	
  5.093	 85.207	  1.28359	  0.72639	  0.68841	  0.88198	  0.55754	  0.00135	  1.28383	708.36499	 23.80	
  5.104	 66.290	  1.28594	  0.78735	  0.63364	  0.86840	  0.57010	  0.00068	  1.28683	708.32501	 23.80	
  5.094	 47.331	  1.28634	  0.83989	  0.58614	  0.83337	  0.59988	  0.00116	  1.28705	708.39801	 23.80	
  5.089	 28.397	  1.29084	  0.88167	  0.55459	  0.78627	  0.64551	 -0.00018	  1.29152	708.41803	 23.80	
  5.096	  9.576	  1.29100	  0.90132	  0.53601	  0.72793	  0.69937	 -0.00182	  1.29152	708.39301	 23.80	
  5.096	 -9.576	  1.29256	  0.90189	  0.53600	  0.66740	  0.76183	 -0.00349	  1.29380	708.37000	 23.80	
  5.089	-28.397	  1.28234	  0.87208	  0.54948	  0.60828	  0.81337	 -0.00381	  1.28221	708.36200	 23.70	
  5.094	-47.331	  1.28261	  0.83272	  0.58221	  0.56412	  0.86308	 -0.00464	  1.28469	708.22900	 23.70	
  5.104	-66.290	  1.28957	  0.78432	  0.63302	  0.53712	  0.90359	 -0.00442	  1.29128	708.31299	 23.70	
  5.093	-85.207	  1.29673	  0.72741	  0.69357	  0.52650	  0.92448	 -0.00454	  1.29829	708.34399	 23.70	
  5.105	-104.191	  1.29106	  0.66465	  0.75152	  0.52743	  0.91513	 -0.00331	  1.29337	708.39301	 23.70	
  5.095	-123.033	  1.29509	  0.61331	  0.81079	  0.55109	  0.89105	 -0.00231	  1.29624	708.35101	 23.70	
  5.109	-142.013	  1.29267	  0.57035	  0.85818	  0.58887	  0.84431	 -0.00233	  1.29445	708.34003	 23.70	
  5.099	-161.165	  1.29434	  0.54534	  0.89058	  0.63971	  0.78980	 -0.00138	  1.29514	708.28900	 23.70	
  5.100	180.000	  1.29192	  0.53753	  0.89895	  0.69734	  0.72864	 -0.00094	  1.29349	708.29199	 23.70	
  6.800	180.000	  1.28544	  0.46830	  0.95714	  0.68621	  0.71918	 -0.00818	  1.29584	708.25702	 23.70	
  6.796	-166.229	  1.27805	  0.46932	  0.94415	  0.62403	  0.77446	 -0.00753	  1.29060	708.30499	 23.70	
  6.808	-152.311	  1.28295	  0.48808	  0.92602	  0.57308	  0.83392	 -0.00761	  1.29463	708.22400	 23.70	
  6.795	-138.383	  1.27773	  0.51679	  0.88420	  0.52383	  0.88441	 -0.00819	  1.29105	708.14502	 23.70	
  6.792	-124.591	  1.27582	  0.55835	  0.83499	  0.48685	  0.92642	 -0.00896	  1.28887	708.16101	 23.70	
  6.787	-110.754	  1.27859	  0.60859	  0.78211	  0.46411	  0.95715	 -0.01035	  1.29176	708.27502	 23.70	
  6.800	-96.985	  1.28018	  0.66516	  0.72448	  0.45249	  0.97497	 -0.01106	  1.29269	708.23999	 23.70	
  6.800	-83.015	  1.28065	  0.72659	  0.66225	  0.45227	  0.97570	 -0.01431	  1.29396	708.21002	 23.70	
  6.787	-69.246	  1.27889	  0.78489	  0.60589	  0.46413	  0.95952	 -0.01363	  1.29274	708.27698	 23.70	
  6.792	-55.409	  1.28074	  0.84127	  0.55679	  0.48919	  0.93107	 -0.01293	  1.29325	708.27802	 23.70	
  6.795	-41.617	  1.28325	  0.89048	  0.51716	  0.52748	  0.88909	 -0.01355	  1.29559	708.43701	 23.70	
  6.808	-27.689	  1.28405	  0.93056	  0.48556	  0.57365	  0.83786	 -0.01243	  1.29698	708.21301	 23.70	
  6.796	-13.771	  1.28164	  0.95269	  0.46722	  0.62711	  0.77883	 -0.01110	  1.29382	708.12598	 23.70	
  6.800	  0.000	  1.28732	  0.96589	  0.46213	  0.68680	  0.72348	 -0.01107	  1.29958	708.28497	 23.70	
  6.796	 13.771	  1.28290	  0.95573	  0.46859	  0.74540	  0.66243	 -0.00906	  1.29541	708.23999	 23.70	
  6.808	 27.689	  1.28104	  0.93193	  0.48593	  0.80267	  0.60694	 -0.00866	  1.29258	708.21002	 23.70	
  6.795	 41.617	  1.28037	  0.89504	  0.51720	  0.85349	  0.56156	 -0.00864	  1.29064	708.17102	 23.70	
  6.792	 55.409	  1.28360	  0.84937	  0.56098	  0.89973	  0.52666	 -0.00737	  1.29481	708.28497	 23.70	
  6.787	 69.246	  1.28244	  0.79428	  0.60936	  0.92786	  0.50233	 -0.00626	  1.29197	708.36499	 23.70	
  6.800	 83.015	  1.27971	  0.73318	  0.66452	  0.94328	  0.48785	 -0.00719	  1.29059	708.20697	 23.70	
  6.800	 96.985	  1.28151	  0.67502	  0.72447	  0.94399	  0.48927	 -0.00761	  1.29194	708.24597	 23.70	
  6.787	110.754	  1.28544	  0.61974	  0.78714	  0.93103	  0.50319	 -0.00870	  1.29560	708.27100	 23.70	
  6.792	124.591	  1.28504	  0.56944	  0.84239	  0.90090	  0.52587	 -0.00845	  1.29554	708.30902	 23.70	
  6.795	138.383	  1.28351	  0.52686	  0.88943	  0.85696	  0.56139	 -0.00967	  1.29345	708.34998	 23.70	
  6.808	152.311	  1.28421	  0.49475	  0.92698	  0.80655	  0.60608	 -0.00985	  1.29479	708.19800	 23.70	
  6.796	166.229	  1.28719	  0.47703	  0.95148	  0.74857	  0.66213	 -0.00840	  1.29838	708.28003	 23.70	
  8.491	168.704	  1.26444	  0.39863	  0.99910	  0.73146	  0.63834	 -0.01760	  1.28863	708.46600	 23.70	
  8.502	157.493	  1.26872	  0.41697	  0.98374	  0.79358	  0.58562	 -0.01693	  1.29472	708.30902	 23.70	
  8.494	146.194	  1.26410	  0.44203	  0.94830	  0.84729	  0.53448	 -0.01755	  1.28906	708.32703	 23.70	
  8.495	135.039	  1.26535	  0.47827	  0.90803	  0.89816	  0.49264	 -0.01824	  1.28936	708.36401	 23.70	
  8.487	123.723	  1.26135	  0.51910	  0.85442	  0.93784	  0.45652	 -0.01801	  1.28564	708.42700	 23.70	
  8.492	112.575	  1.26397	  0.57174	  0.80001	  0.97119	  0.43330	 -0.01579	  1.28871	708.34399	 23.70	
  8.510	101.220	  1.26706	  0.63078	  0.74000	  0.99247	  0.41919	 -0.01715	  1.29119	708.33099	 23.70	
  8.500	 90.000	  1.27197	  0.69308	  0.68250	  1.00295	  0.41662	 -0.01633	  1.29633	708.22302	 23.70	
  8.510	 78.780	  1.26539	  0.75143	  0.61868	  0.99182	  0.41908	 -0.01342	  1.29053	708.27802	 23.70	
  8.492	 67.425	  1.26960	  0.81377	  0.56409	  0.97666	  0.43514	 -0.01448	  1.29514	708.28497	 23.70	
  8.487	 56.277	  1.26715	  0.86775	  0.51353	  0.94258	  0.46005	 -0.01447	  1.29177	708.15002	 23.70	
  8.495	 44.961	  1.26216	  0.91499	  0.46729	  0.89655	  0.49264	 -0.01560	  1.28829	708.18402	 23.70	
  8.494	 33.806	  1.26495	  0.95966	  0.43363	  0.84728	  0.53796	 -0.01550	  1.29188	708.23798	 23.70	
  8.502	 22.507	  1.26931	  0.99273	  0.40908	  0.79421	  0.58884	 -0.01719	  1.29551	708.30200	 23.70	
  8.491	 11.296	  1.26528	  1.00809	  0.39194	  0.73077	  0.64332	 -0.02010	  1.29341	708.38098	 23.70	
  8.500	  0.000	  1.26783	  1.01418	  0.38817	  0.67063	  0.70390	 -0.02215	  1.29413	708.36499	 23.70	
  8.491	-11.296	  1.26116	  1.00180	  0.39088	  0.60705	  0.76202	 -0.02027	  1.28943	708.28802	 23.70	
  8.502	-22.507	  1.26238	  0.98327	  0.40476	  0.55021	  0.82293	 -0.02257	  1.28950	708.33099	 23.70	
  8.494	-33.806	  1.25743	  0.94668	  0.42899	  0.49731	  0.87683	 -0.02263	  1.28508	708.32001	 23.70	
  8.495	-44.961	  1.26299	  0.90760	  0.46546	  0.45659	  0.92998	 -0.02320	  1.29104	708.39801	 23.70	
  8.487	-56.277	  1.27190	  0.86263	  0.51300	  0.42646	  0.97693	 -0.02251	  1.29996	708.33398	 23.70	
  8.492	-67.425	  1.27289	  0.80576	  0.56338	  0.40092	  1.00952	 -0.02371	  1.30183	708.43402	 23.70	
  8.510	-78.780	  1.25417	  0.73301	  0.61312	  0.37961	  1.01438	 -0.02432	  1.28188	708.34399	 23.70	
  8.500	-90.000	  1.25940	  0.67467	  0.67493	  0.37618	  1.02423	 -0.02329	  1.28887	708.28802	 23.70	
  8.510	-101.220	  1.26134	  0.61576	  0.73734	  0.38133	  1.01967	 -0.02054	  1.29009	708.39301	 23.70	
  8.492	-112.575	  1.25737	  0.55795	  0.79514	  0.39517	  0.99685	 -0.01880	  1.28668	708.32001	 23.70	
  8.487	-123.723	  1.26573	  0.51162	  0.85639	  0.42271	  0.97225	 -0.01780	  1.29510	708.33301	 23.70	
  8.495	-135.039	  1.26042	  0.46707	  0.90435	  0.45582	  0.92698	 -0.01721	  1.28899	708.42999	 23.60	
  8.494	-146.194	  1.26563	  0.43562	  0.94942	  0.50131	  0.88016	 -0.01573	  1.29330	708.28601	 23.60	
  8.502	-157.493	  1.26419	  0.40972	  0.98033	  0.55288	  0.82095	 -0.01582	  1.29088	708.33301	 23.60	
  8.491	-168.704	  1.26407	  0.39635	  0.99978	  0.60923	  0.76138	 -0.01680	  1.29092	708.29700	 23.60	
  8.500	180.000	  1.26754	  0.39377	  1.00812	  0.67083	  0.70171	 -0.01779	  1.29281	708.37500	 23.60	
 10.200	180.000	  1.24730	  0.31897	  1.05669	  0.65066	  0.68274	 -0.02793	  1.29216	708.34198	 23.60	
 10.191	-170.497	  1.24841	  0.32176	  1.05176	  0.59078	  0.74423	 -0.02774	  1.29489	708.35602	 23.60	
 10.210	-161.034	  1.24679	  0.33305	  1.03393	  0.53158	  0.80530	 -0.02456	  1.29391	708.37903	 23.60	
 10.194	-151.526	  1.24908	  0.35213	  1.00962	  0.47842	  0.86652	 -0.02546	  1.29719	708.29498	 23.60	
 10.190	-142.105	  1.24708	  0.38182	  0.97023	  0.43007	  0.92084	 -0.02527	  1.29566	708.24597	 23.60	
 10.215	-132.646	  1.24318	  0.41678	  0.92296	  0.38874	  0.96652	 -0.02659	  1.29085	708.17902	 23.60	
 10.203	-123.092	  1.24169	  0.46004	  0.86885	  0.35448	  1.00740	 -0.02719	  1.29180	708.30200	 23.60	
 10.192	-113.678	  1.24899	  0.51379	  0.81557	  0.33038	  1.04615	 -0.02754	  1.29888	708.44897	 23.60	
 10.208	-104.249	  1.24380	  0.56593	  0.75200	  0.31097	  1.06423	 -0.03110	  1.29336	708.42999	 23.60	
 10.210	-94.801	  1.23171	  0.62008	  0.68229	  0.29958	  1.06562	 -0.03205	  1.28049	708.34802	 23.60	
 10.210	-85.199	  1.22093	  0.67637	  0.61425	  0.29735	  1.05592	 -0.03531	  1.26967	708.24701	 23.60	
 10.208	-75.751	  1.23014	  0.74322	  0.56119	  0.30841	  1.05361	 -0.03552	  1.27945	708.30200	 23.60	
 10.192	-66.322	  1.23676	  0.80648	  0.50950	  0.32839	  1.03633	 -0.03298	  1.28472	708.30798	 23.60	
 10.203	-56.908	  1.25032	  0.87430	  0.46315	  0.35550	  1.01651	 -0.03353	  1.29867	708.36700	 23.60	
 10.215	-47.354	  1.23951	  0.92090	  0.41277	  0.38580	  0.96651	 -0.03440	  1.28801	708.37903	 23.60	
 10.190	-37.895	  1.23548	  0.96170	  0.37722	  0.42642	  0.91413	 -0.03335	  1.28180	708.36401	 23.60	
 10.194	-28.474	  1.24341	  1.00669	  0.34879	  0.47453	  0.86707	 -0.03217	  1.29139	708.33600	 23.60	
 10.210	-18.966	  1.23924	  1.03306	  0.32595	  0.52683	  0.80452	 -0.03127	  1.28637	708.38202	 23.60	
 10.191	 -9.503	  1.24111	  1.05178	  0.31571	  0.58619	  0.74524	 -0.03021	  1.28885	708.34198	 23.60	
 10.200	  0.000	  1.23686	  1.05386	  0.31152	  0.64530	  0.68141	 -0.02974	  1.28398	708.44098	 23.60	
 10.191	  9.503	  1.23830	  1.05262	  0.31326	  0.70698	  0.62100	 -0.03160	  1.28554	708.47498	 23.60	
 10.210	 18.966	  1.24193	  1.03984	  0.32820	  0.77231	  0.56465	 -0.02812	  1.28952	708.32300	 23.60	
 10.194	 28.474	  1.24989	  1.01968	  0.35304	  0.83660	  0.51662	 -0.02600	  1.29612	708.44897	 23.60	
 10.190	 37.895	  1.23812	  0.97507	  0.37926	  0.88520	  0.46405	 -0.02483	  1.28383	708.32001	 23.60	
 10.215	 47.354	  1.23222	  0.92541	  0.41427	  0.93081	  0.42026	 -0.02523	  1.27888	708.32300	 23.60	
 10.203	 56.908	  1.23696	  0.87614	  0.46070	  0.97430	  0.38985	 -0.02326	  1.28210	708.42902	 23.60	
 10.192	 66.322	  1.24639	  0.82715	  0.51478	  1.01285	  0.36922	 -0.02144	  1.29095	708.28198	 23.60	
 10.208	 75.751	  1.24136	  0.76320	  0.56790	  1.03140	  0.34967	 -0.02263	  1.28594	708.22900	 23.60	
 10.210	 85.199	  1.24670	  0.70377	  0.62890	  1.04685	  0.34178	 -0.02483	  1.29130	708.23798	 23.60	
 10.210	 94.801	  1.24386	  0.63889	  0.69078	  1.04522	  0.34085	 -0.02623	  1.28821	708.30902	 23.60	
 10.208	104.249	  1.25107	  0.58230	  0.75690	  1.03989	  0.35001	 -0.02754	  1.29464	708.19299	 23.60	
 10.192	113.678	  1.24194	  0.52306	  0.81168	  1.00883	  0.36597	 -0.02721	  1.28411	708.26398	 23.60	
 10.203	123.092	  1.24188	  0.47133	  0.86879	  0.97764	  0.38897	 -0.02756	  1.28530	708.16101	 23.60	
 10.215	132.646	  1.25366	  0.42946	  0.93037	  0.94612	  0.42405	 -0.02931	  1.29690	708.33600	 23.60	
 10.190	142.105	  1.25132	  0.39237	  0.97303	  0.89374	  0.46529	 -0.02928	  1.29459	708.36700	 23.60	
 10.194	151.526	  1.24739	  0.36018	  1.00709	  0.83512	  0.51079	 -0.02775	  1.29064	708.30298	 23.60	
 10.210	161.034	  1.24773	  0.33812	  1.03489	  0.77645	  0.56333	 -0.02679	  1.29321	708.39502	 23.50	
 10.191	170.497	  1.24565	  0.32461	  1.04835	  0.71294	  0.62016	 -0.02714	  1.28850	708.40302	 23.50	
 11.899	171.783	  1.22946	  0.25039	  1.10068	  0.69633	  0.60062	 -0.03831	  1.29854	708.33600	 23.50	
 11.890	163.610	  1.22228	  0.26001	  1.08029	  0.75437	  0.53883	 -0.03663	  1.29037	708.53003	 23.50	
 11.889	155.445	  1.21560	  0.27843	  1.05108	  0.81043	  0.48267	 -0.03742	  1.28267	708.37299	 23.50	
 11.909	147.299	  1.22005	  0.30627	  1.02264	  0.87192	  0.43570	 -0.03722	  1.28642	708.35101	 23.50	
 11.902	139.148	  1.22424	  0.34161	  0.98423	  0.92834	  0.39341	 -0.03797	  1.29011	708.36700	 23.50	
 11.894	130.867	  1.21825	  0.37811	  0.93261	  0.97131	  0.35331	 -0.03770	  1.28391	708.22302	 23.50	
 11.897	122.732	  1.21931	  0.42216	  0.88007	  1.01359	  0.32063	 -0.03865	  1.28544	708.39502	 23.50	
 11.903	114.597	  1.22354	  0.47455	  0.82490	  1.05070	  0.29639	 -0.03709	  1.29024	708.46802	 23.50	
 11.893	106.346	  1.22615	  0.53147	  0.76498	  1.07646	  0.28012	 -0.03708	  1.29260	708.41998	 23.50	
 11.892	 98.155	  1.22170	  0.58926	  0.69998	  1.08839	  0.26839	 -0.03718	  1.28857	708.28601	 23.50	
 11.900	 90.000	  1.22102	  0.64984	  0.63756	  1.09193	  0.26588	 -0.03603	  1.28848	708.33099	 23.50	
 11.892	 81.845	  1.22088	  0.71275	  0.57669	  1.08755	  0.26999	 -0.03338	  1.28899	708.26001	 23.50	
 11.893	 73.654	  1.22196	  0.77550	  0.51876	  1.07399	  0.28123	 -0.03258	  1.29012	708.29401	 23.50	
 11.903	 65.403	  1.22343	  0.83667	  0.46419	  1.05106	  0.29909	 -0.03324	  1.29168	708.29498	 23.50	
 11.897	 57.268	  1.21980	  0.89315	  0.41267	  1.01662	  0.32255	 -0.03438	  1.29040	708.33398	 23.50	
 11.894	 49.133	  1.22406	  0.94877	  0.36958	  0.97803	  0.35685	 -0.03425	  1.29420	708.42700	 23.50	
 11.902	 40.852	  1.22235	  0.99606	  0.32887	  0.92882	  0.39492	 -0.03476	  1.29264	708.21301	 23.50	
 11.909	 32.701	  1.21263	  1.02779	  0.29485	  0.86828	  0.43533	 -0.03308	  1.28340	708.46002	 23.50	
 11.889	 24.555	  1.21610	  1.06236	  0.27056	  0.81148	  0.48773	 -0.03482	  1.28671	708.37097	 23.50	
 11.890	 16.390	  1.21664	  1.08531	  0.25353	  0.75123	  0.54200	 -0.03720	  1.28727	708.40698	 23.50	
 11.899	  8.217	  1.21906	  1.10055	  0.24266	  0.69149	  0.60030	 -0.03972	  1.29173	708.35602	 23.50	
 11.900	  0.000	  1.22092	  1.10615	  0.23755	  0.62672	  0.66347	 -0.04049	  1.29298	708.34698	 23.50	
 11.899	 -8.217	  1.21903	  1.09819	  0.24161	  0.56525	  0.72450	 -0.04011	  1.29034	708.35797	 23.50	
 11.890	-16.390	  1.21798	  1.08069	  0.25190	  0.50660	  0.78489	 -0.03980	  1.28920	708.41998	 23.50	
 11.889	-24.555	  1.21822	  1.05727	  0.26845	  0.45013	  0.84642	 -0.04087	  1.29055	708.38501	 23.40	
 11.909	-32.701	  1.22636	  1.02993	  0.29692	  0.40385	  0.90964	 -0.04151	  1.29832	708.32501	 23.50	
 11.902	-40.852	  1.21451	  0.97778	  0.32626	  0.35669	  0.95214	 -0.04298	  1.28570	708.24103	 23.50	
 11.894	-49.133	  1.21694	  0.93074	  0.36625	  0.31883	  1.00214	 -0.04248	  1.28923	708.32300	 23.50	
 11.897	-57.268	  1.21725	  0.87651	  0.41040	  0.28620	  1.04286	 -0.04197	  1.28992	708.22101	 23.50	
 11.903	-65.403	  1.21226	  0.81577	  0.45664	  0.25770	  1.07197	 -0.04235	  1.28547	708.44397	 23.40	
 11.893	-73.654	  1.21442	  0.75662	  0.51278	  0.24155	  1.09661	 -0.04243	  1.28794	708.45697	 23.40	
 11.892	-81.845	  1.21266	  0.69258	  0.57167	  0.23091	  1.10936	 -0.04523	  1.28666	708.39600	 23.40	
 11.900	-90.000	  1.21182	  0.63034	  0.63179	  0.22730	  1.11323	 -0.04416	  1.28621	708.44897	 23.40	
 11.892	-98.155	  1.21614	  0.57114	  0.69659	  0.23201	  1.11156	 -0.04150	  1.29041	708.34698	 23.40	
 11.893	-106.346	  1.22201	  0.51531	  0.76225	  0.24356	  1.10266	 -0.03978	  1.29704	708.33099	 23.40	
 11.903	-114.597	  1.21679	  0.45871	  0.82109	  0.26013	  1.07502	 -0.03760	  1.29114	708.21802	 23.40	
 11.897	-122.732	  1.21467	  0.40922	  0.87717	  0.28563	  1.04023	 -0.03623	  1.28713	708.42297	 23.40	
 11.894	-130.867	  1.21971	  0.36653	  0.93463	  0.31942	  1.00322	 -0.03520	  1.29328	708.38898	 23.40	
 11.902	-139.148	  1.21403	  0.32758	  0.97754	  0.35746	  0.94977	 -0.03512	  1.28539	708.20697	 23.40	
 11.909	-147.299	  1.22009	  0.29627	  1.02269	  0.40236	  0.90117	 -0.03376	  1.29091	708.27502	 23.40	
 11.889	-155.445	  1.21717	  0.27301	  1.05205	  0.45150	  0.84184	 -0.03403	  1.28770	708.38202	 23.40	
 11.890	-163.610	  1.21744	  0.25603	  1.07565	  0.50725	  0.78026	 -0.03666	  1.28715	708.38202	 23.40	
 11.899	-171.783	  1.22388	  0.24699	  1.09597	  0.56789	  0.72217	 -0.03804	  1.29392	708.21503	 23.40	
 11.900	180.000	  1.22251	  0.24404	  1.09983	  0.62887	  0.65901	 -0.03843	  1.29092	708.17603	 23.40	
 13.600	180.000	  1.19274	  0.17094	  1.13771	  0.60385	  0.63259	 -0.04787	  1.28888	708.17401	 23.40	
 13.608	-172.853	  1.19501	  0.17285	  1.13638	  0.54407	  0.69552	 -0.04818	  1.29277	708.17902	 23.40	
 13.611	-165.583	  1.19452	  0.18112	  1.12321	  0.48431	  0.75893	 -0.04626	  1.29290	708.23700	 23.40	
 13.601	-158.353	  1.19113	  0.19492	  1.09876	  0.42617	  0.81858	 -0.04440	  1.28897	708.27802	 23.50	
 13.609	-151.210	  1.19243	  0.21504	  1.07176	  0.37547	  0.87892	 -0.04329	  1.29171	708.33301	 23.40	
 13.611	-143.999	  1.19318	  0.24178	  1.03580	  0.32780	  0.93504	 -0.04464	  1.29384	708.23798	 23.50	
 13.601	-136.825	  1.18965	  0.27364	  0.98984	  0.28469	  0.98505	 -0.04478	  1.29069	708.26801	 23.40	
 13.596	-129.640	  1.18153	  0.31153	  0.93383	  0.24722	  1.02430	 -0.04473	  1.28162	708.21503	 23.40	
 13.611	-122.431	  1.18261	  0.35496	  0.88089	  0.21593	  1.06729	 -0.04687	  1.28562	708.15302	 23.40	
 13.604	-115.211	  1.18974	  0.40563	  0.82841	  0.19416	  1.10455	 -0.04801	  1.29301	708.24103	 23.40	
 13.595	-108.042	  1.19055	  0.46055	  0.76774	  0.17569	  1.13162	 -0.04778	  1.29366	708.22601	 23.40	
 13.607	-100.793	  1.17998	  0.51248	  0.69865	  0.16079	  1.13933	 -0.04883	  1.28289	708.41998	 23.40	
 13.601	-93.617	  1.18386	  0.57397	  0.63868	  0.15634	  1.15114	 -0.05003	  1.28817	708.32501	 23.40	
 13.601	-86.383	  1.18296	  0.63501	  0.57572	  0.15502	  1.15039	 -0.05098	  1.28628	708.34399	 23.40	
 13.607	-79.207	  1.18596	  0.69849	  0.51709	  0.16180	  1.14438	 -0.05113	  1.28885	708.29199	 23.40	
 13.595	-71.958	  1.18441	  0.76064	  0.45986	  0.17520	  1.12561	 -0.05036	  1.28601	708.40399	 23.40	
 13.604	-64.789	  1.18382	  0.82058	  0.40562	  0.19167	  1.10133	 -0.04925	  1.28550	708.40997	 23.40	
 13.611	-57.569	  1.19097	  0.88549	  0.35926	  0.21869	  1.07528	 -0.05048	  1.29219	708.41498	 23.40	
 13.596	-50.360	  1.18747	  0.93681	  0.31424	  0.24859	  1.03275	 -0.04984	  1.28804	708.28802	 23.40	
 13.601	-43.175	  1.18690	  0.98633	  0.27418	  0.28426	  0.98579	 -0.04992	  1.28750	708.39600	 23.40	
 13.611	-36.001	  1.18917	  1.03329	  0.24083	  0.32662	  0.93666	 -0.04870	  1.28868	708.34802	 23.40	
 13.609	-28.790	  1.18568	  1.06794	  0.21171	  0.37157	  0.87857	 -0.04729	  1.28672	708.37097	 23.40	
 13.601	-21.647	  1.18498	  1.09688	  0.19119	  0.42282	  0.81920	 -0.04695	  1.28456	708.26801	 23.40	
 13.611	-14.417	  1.19132	  1.12557	  0.17684	  0.48184	  0.76276	 -0.04533	  1.29153	708.16699	 23.40	
 13.608	 -7.147	  1.18999	  1.13771	  0.16740	  0.54013	  0.69864	 -0.04788	  1.28892	708.19897	 23.40	
 13.600	  0.000	  1.18669	  1.14099	  0.16349	  0.59857	  0.63622	 -0.04747	  1.28678	708.28601	 23.40	
 13.608	  7.147	  1.19203	  1.14314	  0.16789	  0.66495	  0.57730	 -0.04668	  1.29174	708.35400	 23.40	
 13.611	 14.417	  1.19577	  1.13584	  0.17724	  0.73081	  0.51991	 -0.04627	  1.29588	708.29401	 23.40	
 13.601	 21.647	  1.18769	  1.10686	  0.19263	  0.78806	  0.46171	 -0.04398	  1.28700	708.31299	 23.40	
 13.609	 28.790	  1.18129	  1.07420	  0.21226	  0.84438	  0.40720	 -0.04247	  1.28073	708.32703	 23.40	
 13.611	 36.001	  1.19350	  1.05057	  0.24243	  0.90974	  0.36501	 -0.04136	  1.29325	708.49902	 23.40	
 13.601	 43.175	  1.19041	  1.00406	  0.27632	  0.95840	  0.32371	 -0.04169	  1.28837	708.39899	 23.40	
 13.596	 50.360	  1.18630	  0.95098	  0.31444	  1.00263	  0.28494	 -0.04479	  1.28380	708.33600	 23.40	
 13.611	 57.569	  1.18949	  0.90049	  0.35876	  1.04659	  0.25317	 -0.04348	  1.28613	708.34198	 23.40	
 13.604	 64.789	  1.18595	  0.83943	  0.40801	  1.07697	  0.22895	 -0.04338	  1.28231	708.42700	 23.40	
 13.595	 71.958	  1.18875	  0.78121	  0.46259	  1.10299	  0.21141	 -0.04240	  1.28464	708.48297	 23.40	
 13.607	 79.207	  1.19274	  0.72047	  0.52104	  1.12425	  0.19823	 -0.04376	  1.28921	708.21802	 23.40	
 13.601	 86.383	  1.19100	  0.65612	  0.57955	  1.12869	  0.19265	 -0.04623	  1.28563	708.26001	 23.40	
 13.601	 93.617	  1.19274	  0.59481	  0.64422	  1.13096	  0.19342	 -0.04678	  1.28681	708.30298	 23.40	
 13.607	100.793	  1.19970	  0.53672	  0.71050	  1.12959	  0.19857	 -0.04807	  1.29415	708.20599	 23.40	
 13.595	108.042	  1.19959	  0.48021	  0.77244	  1.11047	  0.21318	 -0.04784	  1.29303	708.22998	 23.40	
 13.604	115.211	  1.19748	  0.42114	  0.83372	  1.08548	  0.22723	 -0.04815	  1.29225	708.24701	 23.40	
 13.611	122.431	  1.19684	  0.37444	  0.89066	  1.05083	  0.25361	 -0.04848	  1.29001	708.24402	 23.40	
 13.596	129.640	  1.20026	  0.32935	  0.94773	  1.01311	  0.28453	 -0.05031	  1.29475	708.26001	 23.40	
 13.601	136.825	  1.20293	  0.28923	  0.99984	  0.96758	  0.32197	 -0.04904	  1.29690	708.33301	 23.40	
 13.611	143.999	  1.20144	  0.25445	  1.04185	  0.91306	  0.36332	 -0.04851	  1.29520	708.28198	 23.40	
 13.609	151.210	  1.20198	  0.22623	  1.07905	  0.85777	  0.40976	 -0.04725	  1.29691	708.26300	 23.40	
 13.601	158.353	  1.19926	  0.20320	  1.10557	  0.79579	  0.46034	 -0.04768	  1.29486	708.23999	 23.40	
 13.611	165.583	  1.19077	  0.18532	  1.11881	  0.72830	  0.51227	 -0.04641	  1.28574	708.14697	 23.40	
 13.608	172.853	  1.19178	  0.17460	  1.13291	  0.66498	  0.57152	 -0.04718	  1.28818	708.23798	 23.40	
 15.298	173.587	  1.16353	  0.10707	  1.17075	  0.64222	  0.54700	 -0.05644	  1.29039	708.43500	 23.40	
 15.291	167.167	  1.16433	  0.11452	  1.16094	  0.70354	  0.48856	 -0.05900	  1.29019	708.33398	 23.40	
 15.307	160.676	  1.15786	  0.12823	  1.13627	  0.76230	  0.43083	 -0.05727	  1.28317	708.27802	 23.40	
 15.300	154.261	  1.16185	  0.14928	  1.11362	  0.82587	  0.38024	 -0.05736	  1.28723	708.17603	 23.40	
 15.288	147.854	  1.16369	  0.17372	  1.08205	  0.88542	  0.33241	 -0.05648	  1.28839	708.21600	 23.40	
 15.293	141.428	  1.17015	  0.20586	  1.04781	  0.94387	  0.29168	 -0.05844	  1.29449	708.15302	 23.40	
 15.299	134.985	  1.16617	  0.23708	  0.99988	  0.99350	  0.24901	 -0.05980	  1.29145	708.19501	 23.30	
 15.305	128.583	  1.16593	  0.27816	  0.94906	  1.03909	  0.21482	 -0.05866	  1.29184	708.19897	 23.40	
 15.309	122.142	  1.16539	  0.32255	  0.89398	  1.07813	  0.18644	 -0.05908	  1.28959	708.18701	 23.40	
 15.304	115.711	  1.16486	  0.37153	  0.83496	  1.11104	  0.16242	 -0.05640	  1.29007	708.06702	 23.40	
 15.297	109.291	  1.16818	  0.42519	  0.77633	  1.13988	  0.14477	 -0.05654	  1.29365	708.09198	 23.40	
 15.293	102.897	  1.16886	  0.48209	  0.71469	  1.16003	  0.13101	 -0.05631	  1.29500	708.11902	 23.40	
 15.293	 96.458	  1.16616	  0.54032	  0.65061	  1.16878	  0.12358	 -0.05620	  1.29328	708.26001	 23.40	
 15.300	 90.000	  1.16390	  0.59970	  0.58829	  1.17254	  0.11999	 -0.05541	  1.29149	708.27197	 23.40	
 15.293	 83.542	  1.16279	  0.66383	  0.52459	  1.16744	  0.12277	 -0.05396	  1.29085	708.19202	 23.40	
 15.293	 77.103	  1.16610	  0.72911	  0.46760	  1.15899	  0.13245	 -0.05218	  1.29457	708.28198	 23.40	
 15.297	 70.709	  1.16184	  0.78842	  0.41121	  1.13501	  0.14710	 -0.05109	  1.28890	708.11401	 23.40	
 15.304	 64.289	  1.16070	  0.84863	  0.35789	  1.10898	  0.16480	 -0.05082	  1.29010	708.13397	 23.40	
 15.309	 57.858	  1.16161	  0.90749	  0.30976	  1.07765	  0.18828	 -0.05185	  1.29167	708.23297	 23.40	
 15.305	 51.417	  1.16128	  0.96208	  0.26638	  1.03742	  0.21918	 -0.05375	  1.29204	708.18201	 23.40	
 15.299	 45.015	  1.15786	  1.00859	  0.22604	  0.98911	  0.25235	 -0.05279	  1.28799	708.28802	 23.40	
 15.293	 38.572	  1.15843	  1.05328	  0.19296	  0.93805	  0.29281	 -0.05274	  1.28988	708.22998	 23.40	
 15.288	 32.146	  1.15421	  1.08749	  0.16200	  0.88057	  0.33418	 -0.05235	  1.28612	708.24597	 23.40	
 15.300	 25.739	  1.15575	  1.12105	  0.13979	  0.82349	  0.38404	 -0.05156	  1.28681	708.24597	 23.40	
 15.307	 19.324	  1.16176	  1.15375	  0.12006	  0.76486	  0.43857	 -0.04793	  1.29565	708.22998	 23.30	
 15.291	 12.833	  1.15892	  1.16604	  0.10816	  0.70055	  0.49359	 -0.05011	  1.29040	708.33301	 23.30	
 15.298	  6.413	  1.15838	  1.17596	  0.09961	  0.63855	  0.55048	 -0.05158	  1.29050	708.29199	 23.30	
 15.300	  0.000	  1.15924	  1.18000	  0.09740	  0.57596	  0.61228	 -0.05065	  1.29090	708.21600	 23.30	
 15.298	 -6.413	  1.15749	  1.17308	  0.10061	  0.51570	  0.67284	 -0.05053	  1.28935	708.22400	 23.30	
 15.291	-12.833	  1.16065	  1.16188	  0.11038	  0.45949	  0.73550	 -0.05043	  1.29232	708.16400	 23.30	
 15.307	-19.324	  1.15711	  1.13855	  0.12232	  0.40087	  0.79526	 -0.05109	  1.28750	708.21802	 23.30	
 15.300	-25.739	  1.15788	  1.11262	  0.14107	  0.34990	  0.85513	 -0.05131	  1.28836	708.34698	 23.30	
 15.288	-32.146	  1.16124	  1.08164	  0.16516	  0.30300	  0.91464	 -0.05195	  1.29268	708.27197	 23.30	
 15.293	-38.572	  1.15858	  1.03837	  0.19293	  0.25697	  0.96692	 -0.05331	  1.28948	708.28497	 23.30	
 15.299	-45.015	  1.15861	  0.99227	  0.22871	  0.21938	  1.01694	 -0.05607	  1.29075	708.20203	 23.30	
 15.305	-51.417	  1.16007	  0.94267	  0.26794	  0.18633	  1.06146	 -0.05522	  1.29052	708.32800	 23.30	
 15.309	-57.858	  1.15956	  0.88730	  0.31049	  0.15627	  1.09975	 -0.05479	  1.29240	708.18201	 23.30	
 15.304	-64.289	  1.15731	  0.82687	  0.35858	  0.13191	  1.13071	 -0.05313	  1.28975	708.25702	 23.30	
 15.297	-70.709	  1.15624	  0.76541	  0.41007	  0.11227	  1.15612	 -0.05366	  1.29105	708.15900	 23.30	
 15.293	-77.103	  1.15513	  0.70378	  0.46610	  0.10088	  1.17305	 -0.05681	  1.28919	708.09198	 23.30	
 15.293	-83.542	  1.15367	  0.64083	  0.52261	  0.09101	  1.18396	 -0.05518	  1.28840	708.08801	 23.30	
 15.300	-90.000	  1.15520	  0.57959	  0.58389	  0.08834	  1.18964	 -0.05472	  1.29097	708.12799	 23.30	
 15.293	-96.458	  1.15278	  0.51639	  0.64485	  0.08951	  1.18280	 -0.05491	  1.28830	708.25702	 23.30	
 15.293	-102.897	  1.15474	  0.46094	  0.70629	  0.09686	  1.17480	 -0.05510	  1.29133	708.21600	 23.30	
 15.297	-109.291	  1.15116	  0.40542	  0.76703	  0.11192	  1.15186	 -0.05552	  1.28597	708.17603	 23.30	
 15.304	-115.711	  1.15309	  0.35432	  0.82845	  0.13190	  1.12728	 -0.05629	  1.28729	708.24902	 23.30	
 15.309	-122.142	  1.15668	  0.30814	  0.88915	  0.15592	  1.09724	 -0.05483	  1.29151	708.29999	 23.30	
 15.305	-128.583	  1.15736	  0.26637	  0.94419	  0.18687	  1.05816	 -0.05424	  1.29122	708.17603	 23.30	
 15.299	-134.985	  1.15546	  0.22641	  0.99181	  0.21796	  1.01229	 -0.05380	  1.28796	708.29199	 23.30	
 15.293	-141.428	  1.15706	  0.19571	  1.03772	  0.26114	  0.96175	 -0.05346	  1.28834	708.21503	 23.30	
 15.288	-147.854	  1.15712	  0.16627	  1.07683	  0.30378	  0.90668	 -0.05289	  1.28772	708.18201	 23.30	
 15.300	-154.261	  1.15658	  0.14331	  1.10779	  0.35049	  0.85030	 -0.05310	  1.28669	708.20697	 23.30	
 15.307	-160.676	  1.15833	  0.12421	  1.13665	  0.40169	  0.79130	 -0.05450	  1.28840	708.21301	 23.30	
 15.291	-167.167	  1.15930	  0.11045	  1.15623	  0.45843	  0.72810	 -0.05641	  1.28874	708.21301	 23.30	
 15.298	-173.587	  1.16179	  0.10589	  1.16996	  0.51857	  0.66899	 -0.05705	  1.29014	708.31598	 23.30	
 15.300	180.000	  1.16266	  0.10392	  1.17299	  0.57880	  0.60712	 -0.05793	  1.28917	708.37903	 23.30	
 17.000	180.000	  1.12760	  0.04689	  1.20246	  0.55628	  0.58233	 -0.06201	  1.28831	708.34399	 23.30	
 16.990	-174.179	  1.12261	  0.04533	  1.19425	  0.49230	  0.63955	 -0.06193	  1.28278	708.28900	 23.30	
 17.009	-168.383	  1.12350	  0.05357	  1.18586	  0.43810	  0.70084	 -0.05929	  1.28535	708.26001	 23.30	
 17.000	-162.596	  1.12581	  0.06510	  1.17175	  0.38478	  0.76360	 -0.05868	  1.28846	708.20099	 23.30	
 16.990	-156.759	  1.12509	  0.08186	  1.14785	  0.33418	  0.82301	 -0.05707	  1.28700	708.23199	 23.30	
 16.995	-150.919	  1.12455	  0.10012	  1.11801	  0.28535	  0.88041	 -0.05821	  1.28899	708.17902	 23.30	
 16.988	-145.161	  1.11741	  0.12691	  1.07480	  0.24036	  0.93122	 -0.05691	  1.28016	708.14203	 23.30	
 17.014	-139.343	  1.11621	  0.15364	  1.03464	  0.19946	  0.98273	 -0.05622	  1.28089	708.09998	 23.30	
 17.007	-133.546	  1.11863	  0.18523	  0.99127	  0.16266	  1.03246	 -0.05641	  1.28464	708.08801	 23.30	
 17.001	-127.699	  1.11755	  0.22395	  0.93973	  0.13052	  1.07593	 -0.05577	  1.28442	708.08301	 23.30	
 17.006	-121.937	  1.11431	  0.26378	  0.88417	  0.10302	  1.11060	 -0.05757	  1.28150	708.12299	 23.30	
 17.002	-116.134	  1.11964	  0.30913	  0.83172	  0.07889	  1.14929	 -0.05645	  1.28864	708.12598	 23.30	
 17.001	-110.310	  1.11761	  0.35820	  0.77131	  0.06001	  1.17406	 -0.05730	  1.28737	708.13599	 23.30	
 16.988	-104.517	  1.11924	  0.41034	  0.71236	  0.04692	  1.19429	 -0.06047	  1.28810	708.16400	 23.30	
 17.008	-98.662	  1.11878	  0.46668	  0.64982	  0.03596	  1.20850	 -0.05520	  1.28835	708.04102	 23.30	
 16.996	-92.909	  1.11608	  0.52120	  0.58751	  0.02973	  1.21171	 -0.05384	  1.28622	708.22601	 23.30	
 16.996	-87.091	  1.12180	  0.58579	  0.53234	  0.03356	  1.21743	 -0.05179	  1.29075	708.19000	 23.30	
 17.012	-81.253	  1.12130	  0.64505	  0.47205	  0.03634	  1.21016	 -0.05132	  1.28949	708.11902	 23.30	
 16.988	-75.483	  1.12045	  0.70594	  0.41563	  0.04434	  1.19719	 -0.05156	  1.28857	708.26001	 23.30	
 17.001	-69.690	  1.12266	  0.76801	  0.36279	  0.05783	  1.17999	 -0.05300	  1.29133	708.22400	 23.30	
 17.002	-63.866	  1.12262	  0.82627	  0.31377	  0.07615	  1.15316	 -0.05569	  1.28978	708.11603	 23.30	
 17.006	-58.063	  1.11958	  0.88232	  0.26765	  0.10184	  1.11603	 -0.05540	  1.28439	708.03302	 23.30	
 17.001	-52.301	  1.12152	  0.93870	  0.22555	  0.12899	  1.08065	 -0.05651	  1.28656	708.16199	 23.30	
 17.007	-46.454	  1.12899	  0.99684	  0.18706	  0.16119	  1.04405	 -0.05436	  1.29623	708.23297	 23.30	
 17.014	-40.657	  1.12408	  1.04061	  0.14896	  0.19270	  0.99381	 -0.05457	  1.29164	708.15399	 23.30	
 16.988	-34.839	  1.12447	  1.08190	  0.12449	  0.23797	  0.94058	 -0.05119	  1.28949	708.19299	 23.30	
 16.995	-29.081	  1.12255	  1.11658	  0.09550	  0.27865	  0.88361	 -0.05504	  1.28786	708.14502	 23.30	
 16.990	-23.241	  1.12541	  1.15068	  0.07841	  0.33093	  0.82863	 -0.05160	  1.29058	708.19299	 23.30	
 17.000	-17.404	  1.12484	  1.17483	  0.06064	  0.38113	  0.76895	 -0.05140	  1.29047	708.14203	 23.30	
 17.009	-11.617	  1.12228	  1.19083	  0.04743	  0.43443	  0.70561	 -0.05193	  1.28810	708.14502	 23.30	
 16.990	 -5.821	  1.12323	  1.20216	  0.04308	  0.49388	  0.64620	 -0.05031	  1.28792	708.00403	 23.30	
 17.000	  0.000	  1.11820	  1.20205	  0.04176	  0.55047	  0.58536	 -0.04766	  1.28285	708.09100	 23.30	
 16.990	  5.821	  1.12339	  1.20528	  0.04379	  0.61408	  0.52824	 -0.05039	  1.28897	708.19000	 23.30	
 17.009	 11.617	  1.12607	  1.19941	  0.05296	  0.67684	  0.47451	 -0.04902	  1.29166	708.09698	 23.30	
 17.000	 17.404	  1.11942	  1.17943	  0.05711	  0.73164	  0.41455	 -0.04776	  1.28593	708.07703	 23.30	
 16.990	 23.241	  1.12165	  1.15866	  0.07620	  0.79588	  0.36414	 -0.05002	  1.28789	708.24402	 23.30	
 16.995	 29.081	  1.11569	  1.12363	  0.09487	  0.84953	  0.31318	 -0.05352	  1.27922	708.07703	 23.30	
 16.988	 34.839	  1.11876	  1.09366	  0.12047	  0.90761	  0.27143	 -0.05379	  1.28437	708.14502	 23.30	
 17.014	 40.657	  1.12027	  1.05579	  0.14839	  0.96294	  0.22905	 -0.05556	  1.28626	708.16998	 23.30	
 17.007	 46.454	  1.12051	  1.00893	  0.18274	  1.01212	  0.19116	 -0.05850	  1.28634	708.11401	 23.30	
 17.001	 52.301	  1.12151	  0.95960	  0.22323	  1.05674	  0.16036	 -0.05777	  1.28658	708.04999	 23.30	
 17.006	 58.063	  1.12646	  0.90906	  0.26246	  1.10053	  0.12932	 -0.05678	  1.29213	708.05298	 23.30	
 17.002	 63.866	  1.12799	  0.85328	  0.31108	  1.13482	  0.10780	 -0.05698	  1.29173	708.02399	 23.30	
 17.001	 69.690	  1.12579	  0.79093	  0.36072	  1.16019	  0.08723	 -0.05611	  1.28947	708.04901	 23.30	
 16.988	 75.483	  1.11799	  0.72519	  0.41078	  1.17233	  0.07271	 -0.05765	  1.27985	708.06403	 23.30	
 17.012	 81.253	  1.12280	  0.66749	  0.47020	  1.19119	  0.06394	 -0.05897	  1.28467	708.06403	 23.30	
 16.996	 87.091	  1.12692	  0.60814	  0.53126	  1.19993	  0.06093	 -0.05989	  1.28923	708.04602	 23.30	
 16.996	 92.909	  1.12725	  0.54534	  0.59049	  1.20024	  0.05781	 -0.05994	  1.28841	707.98199	 23.30	
 17.008	 98.662	  1.13237	  0.48862	  0.65333	  1.19821	  0.06147	 -0.06053	  1.29335	707.93903	 23.30	
 16.988	104.517	  1.13187	  0.42894	  0.71563	  1.18437	  0.06944	 -0.05960	  1.29204	708.03003	 23.30	
 17.001	110.310	  1.13161	  0.37528	  0.77765	  1.16408	  0.08341	 -0.06147	  1.29182	707.99500	 23.30	
 17.002	116.134	  1.13020	  0.32507	  0.83627	  1.13367	  0.10447	 -0.06109	  1.28911	708.06403	 23.30	
 17.006	121.937	  1.13539	  0.27812	  0.89797	  1.10571	  0.12743	 -0.06413	  1.29368	707.96198	 23.30	
 17.001	127.699	  1.12942	  0.23180	  0.94790	  1.06128	  0.15292	 -0.06605	  1.28862	708.13898	 23.30	
 17.007	133.546	  1.13254	  0.19530	  1.00187	  1.01993	  0.18786	 -0.06644	  1.29159	707.97400	 23.30	
 17.014	139.343	  1.13285	  0.15871	  1.04923	  0.97065	  0.22325	 -0.06435	  1.29176	708.10602	 23.30	
 16.988	145.161	  1.13446	  0.13222	  1.09082	  0.91799	  0.26778	 -0.06315	  1.29262	708.03802	 23.30	
 16.995	150.919	  1.13588	  0.11086	  1.12757	  0.86420	  0.31596	 -0.06530	  1.29410	708.03497	 23.30	
 16.990	156.759	  1.12920	  0.08279	  1.15131	  0.79938	  0.35802	 -0.06537	  1.28847	708.07397	 23.30	
 17.000	162.596	  1.13443	  0.06473	  1.18058	  0.74103	  0.41092	 -0.06378	  1.29451	708.09100	 23.30	
 17.009	168.383	  1.13538	  0.05658	  1.19810	  0.68263	  0.46847	 -0.06448	  1.29599	708.12000	 23.30	
 16.990	174.179	  1.13290	  0.04951	  1.20441	  0.62001	  0.52390	 -0.06178	  1.29299	708.22998	 23.30	
 18.709	174.675	  1.09102	 -0.02447	  1.22912	  0.58308	  0.49045	 -0.06592	  1.29072	708.02100	 23.30	
 18.703	169.441	  1.09276	 -0.01690	  1.22172	  0.64422	  0.43524	 -0.06294	  1.29080	708.08899	 23.30	
 18.691	164.085	  1.09438	 -0.00600	  1.20883	  0.70792	  0.37993	 -0.06651	  1.29320	708.04401	 23.30	
 18.706	158.818	  1.09101	  0.00808	  1.18536	  0.76705	  0.32667	 -0.06447	  1.28949	708.07501	 23.30	
 18.695	153.537	  1.09442	  0.02941	  1.16104	  0.82840	  0.28056	 -0.06129	  1.29177	708.02100	 23.30	
 18.704	148.255	  1.09964	  0.05299	  1.13309	  0.88994	  0.23667	 -0.06315	  1.29713	708.02399	 23.30	
 18.698	142.952	  1.10123	  0.08218	  1.09584	  0.94716	  0.19626	 -0.06473	  1.29792	708.19501	 23.30	
 18.699	137.625	  1.09811	  0.11295	  1.04906	  0.99621	  0.15669	 -0.06286	  1.29430	708.06097	 23.30	
 18.705	132.343	  1.09034	  0.14655	  0.99428	  1.03612	  0.12202	 -0.06485	  1.28398	708.07703	 23.30	
 18.713	127.067	  1.09178	  0.18569	  0.94492	  1.08160	  0.09161	 -0.06377	  1.28685	708.00500	 23.30	
 18.700	121.794	  1.09084	  0.22764	  0.88954	  1.11925	  0.06541	 -0.06319	  1.28590	707.98102	 23.30	
 18.698	116.504	  1.09609	  0.27582	  0.83683	  1.15734	  0.04454	 -0.06062	  1.29223	708.00201	 23.30	
 18.707	111.165	  1.09570	  0.32526	  0.77654	  1.18531	  0.02499	 -0.05726	  1.29279	708.08002	 23.30	
 18.690	105.863	  1.09727	  0.37852	  0.71774	  1.20741	  0.01270	 -0.05670	  1.29575	708.08099	 23.30	
 18.696	100.583	  1.09086	  0.43124	  0.65205	  1.21808	 -0.00019	 -0.05672	  1.29044	708.11401	 23.30	
 18.700	 95.309	  1.09077	  0.48921	  0.59146	  1.22529	 -0.00362	 -0.05729	  1.28913	708.11401	 23.30	
 18.700	 90.000	  1.08971	  0.54795	  0.53169	  1.22775	 -0.00489	 -0.05760	  1.28882	708.01202	 23.30	
 18.700	 84.691	  1.09181	  0.61058	  0.47197	  1.22731	 -0.00320	 -0.05929	  1.29184	707.90302	 23.30	
 18.696	 79.417	  1.09048	  0.67090	  0.41525	  1.21720	  0.00296	 -0.05932	  1.29080	707.95697	 23.30	
 18.690	 74.137	  1.08741	  0.72901	  0.36000	  1.20031	  0.01220	 -0.05671	  1.28880	707.95001	 23.30	
 18.707	 68.835	  1.08946	  0.79135	  0.30835	  1.18250	  0.02633	 -0.05641	  1.29202	708.01898	 23.30	
 18.698	 63.496	  1.08149	  0.84597	  0.25712	  1.14744	  0.04432	 -0.05374	  1.28419	707.94000	 23.30	
 18.700	 58.206	  1.08499	  0.90464	  0.21402	  1.11800	  0.06831	 -0.05410	  1.28811	708.00098	 23.30	
 18.713	 52.933	  1.08519	  0.95970	  0.17043	  1.08007	  0.09077	 -0.05708	  1.28856	708.01599	 23.30	
 18.705	 47.657	  1.08675	  1.01183	  0.13312	  1.03730	  0.12312	 -0.05739	  1.29156	708.13397	 23.30	
 18.699	 42.375	  1.09134	  1.06311	  0.09911	  0.99410	  0.15716	 -0.05652	  1.29756	707.88000	 23.30	
 18.698	 37.048	  1.08765	  1.10292	  0.06716	  0.93715	  0.19498	 -0.05368	  1.29405	707.95599	 23.30	
 18.704	 31.745	  1.08629	  1.13858	  0.04084	  0.87966	  0.23788	 -0.05193	  1.29174	707.93402	 23.30	
 18.695	 26.463	  1.08660	  1.17038	  0.02004	  0.82291	  0.28366	 -0.04729	  1.29167	707.81799	 23.30	
 18.706	 21.182	  1.08376	  1.19383	 -0.00071	  0.76232	  0.32959	 -0.04713	  1.28979	707.91199	 23.30	
 18.691	 15.915	  1.08480	  1.21333	 -0.01358	  0.70164	  0.38222	 -0.04705	  1.29049	707.94299	 23.30	
 18.703	 10.559	  1.08334	  1.22670	 -0.02528	  0.63800	  0.43655	 -0.04612	  1.28955	707.84399	 23.30	
 18.709	  5.325	  1.08574	  1.23637	 -0.03151	  0.57937	  0.49299	 -0.04627	  1.29207	707.81000	 23.30	
 18.700	  0.000	  1.08212	  1.23268	 -0.03260	  0.51592	  0.55049	 -0.04694	  1.28672	707.75098	 23.30	
 18.709	 -5.325	  1.08463	  1.23210	 -0.03220	  0.45804	  0.61111	 -0.04663	  1.29068	707.89502	 23.30	
 18.703	-10.559	  1.08203	  1.21852	 -0.02607	  0.39996	  0.66853	 -0.04812	  1.28572	707.90900	 23.30	
 18.691	-15.915	  1.08521	  1.20572	 -0.01632	  0.34601	  0.73127	 -0.04798	  1.29074	707.99597	 23.30	
 18.706	-21.182	  1.08014	  1.17887	 -0.00488	  0.29061	  0.78746	 -0.04840	  1.28473	708.02399	 23.30	
 18.695	-26.463	  1.08367	  1.15279	  0.01617	  0.24556	  0.84696	 -0.05074	  1.28657	707.91199	 23.30	
 18.704	-31.745	  1.08771	  1.12390	  0.03840	  0.20012	  0.90739	 -0.05417	  1.29181	707.75403	 23.30	
 18.698	-37.048	  1.08045	  1.07591	  0.06470	  0.15732	  0.95474	 -0.05240	  1.28244	707.88800	 23.30	
 18.699	-42.375	  1.08132	  1.03357	  0.09295	  0.11798	  1.00674	 -0.05126	  1.28489	707.91998	 23.30	
 18.705	-47.657	  1.08453	  0.98817	  0.12823	  0.08428	  1.05615	 -0.05238	  1.28991	707.87201	 23.30	
 18.713	-52.933	  1.08308	  0.93486	  0.16548	  0.05245	  1.09936	 -0.05140	  1.28905	707.84601	 23.30	
 18.700	-58.206	  1.08467	  0.88088	  0.20842	  0.02684	  1.13811	 -0.04857	  1.29085	707.89801	 23.30	
 18.698	-63.496	  1.08330	  0.82269	  0.25382	  0.00532	  1.16861	 -0.04751	  1.28955	707.93903	 23.30	
 18.707	-68.835	  1.08648	  0.76496	  0.30400	 -0.01366	  1.19885	 -0.04834	  1.29491	707.95898	 23.20	
 18.690	-74.137	  1.08478	  0.70209	  0.35633	 -0.02724	  1.21727	 -0.04640	  1.29283	707.84900	 23.30	
 18.696	-79.417	  1.08252	  0.64019	  0.40847	 -0.03847	  1.23056	 -0.04352	  1.29123	707.97900	 23.20	
 18.700	-84.691	  1.07774	  0.57638	  0.46492	 -0.04440	  1.23501	 -0.04570	  1.28575	708.01202	 23.30	
 18.700	-90.000	  1.07230	  0.51321	  0.52037	 -0.04798	  1.23213	 -0.05109	  1.28076	708.08801	 23.30	
 18.700	-95.309	  1.07793	  0.45690	  0.58239	 -0.04820	  1.23707	 -0.05206	  1.28874	707.93597	 23.30	
 18.696	-100.583	  1.07724	  0.39978	  0.64409	 -0.04045	  1.22632	 -0.05299	  1.28730	707.86298	 23.30	
 18.690	-105.863	  1.07292	  0.34582	  0.70165	 -0.02917	  1.20695	 -0.05502	  1.28165	707.86102	 23.30	
 18.707	-111.165	  1.07478	  0.29436	  0.76387	 -0.01535	  1.18858	 -0.05500	  1.28406	707.87000	 23.30	
 18.698	-116.504	  1.07712	  0.24665	  0.82412	  0.00305	  1.16354	 -0.05673	  1.28589	708.07501	 23.30	
 18.700	-121.794	  1.07809	  0.20215	  0.88215	  0.02537	  1.13314	 -0.05637	  1.28728	707.93597	 23.30	
 18.713	-127.067	  1.07937	  0.16157	  0.93819	  0.05324	  1.09504	 -0.05656	  1.28838	708.01300	 23.30	
 18.705	-132.343	  1.08328	  0.12558	  0.99167	  0.08437	  1.05469	 -0.05825	  1.29020	707.98102	 23.30	
 18.699	-137.625	  1.08490	  0.09368	  1.04022	  0.12047	  1.00775	 -0.05811	  1.29220	707.94202	 23.30	
 18.698	-142.952	  1.08310	  0.06203	  1.08234	  0.15731	  0.95462	 -0.05915	  1.28829	708.03802	 23.30	
 18.704	-148.255	  1.08897	  0.03852	  1.12591	  0.20176	  0.90529	 -0.06006	  1.29482	707.91199	 23.30	
 18.695	-153.537	  1.08825	  0.01818	  1.15664	  0.24827	  0.84653	 -0.05766	  1.29193	707.92798	 23.30	
 18.706	-158.818	  1.08226	  0.00144	  1.17687	  0.29585	  0.78332	 -0.05717	  1.28423	708.01898	 23.30	
 18.691	-164.085	  1.08693	 -0.01185	  1.20208	  0.34816	  0.72669	 -0.05786	  1.28822	707.85303	 23.30	
 18.703	-169.441	  1.08930	 -0.02064	  1.21899	  0.40548	  0.66605	 -0.05885	  1.28982	707.89203	 23.30	
 18.709	-174.675	  1.08926	 -0.02592	  1.22755	  0.46194	  0.60586	 -0.05971	  1.28900	707.72803	 23.30	
 18.700	180.000	  1.09111	 -0.02550	  1.23137	  0.52204	  0.54745	 -0.05966	  1.28975	707.76703	 23.30	
 20.400	180.000	  1.04548	 -0.10728	  1.25360	  0.48014	  0.50566	 -0.05881	  1.28939	707.94299	 23.30	
 20.401	-175.153	  1.04078	 -0.10672	  1.24577	  0.42040	  0.56209	 -0.05449	  1.28478	707.90900	 23.30	
 20.407	-170.264	  1.04176	 -0.10437	  1.24099	  0.36293	  0.62268	 -0.05588	  1.28847	707.83197	 23.30	
 20.410	-165.423	  1.04260	 -0.09595	  1.22871	  0.30784	  0.68526	 -0.05467	  1.29056	707.77399	 23.30	
 20.392	-160.496	  1.04616	 -0.08390	  1.21323	  0.25594	  0.74902	 -0.05602	  1.29512	707.90100	 23.30	
 20.401	-155.705	  1.03914	 -0.06942	  1.18193	  0.20509	  0.80264	 -0.05489	  1.28801	707.92499	 23.30	
 20.405	-150.835	  1.04016	 -0.05183	  1.15388	  0.15727	  0.86314	 -0.05577	  1.29062	707.90900	 23.30	
 20.397	-145.903	  1.03684	 -0.02737	  1.11423	  0.11415	  0.91739	 -0.05653	  1.28646	707.94202	 23.30	
 20.392	-141.062	  1.03805	 -0.00257	  1.07626	  0.07441	  0.97207	 -0.05787	  1.29006	707.79797	 23.30	
 20.396	-136.227	  1.03386	  0.02651	  1.02796	  0.03639	  1.01934	 -0.05650	  1.28559	707.85498	 23.30	
 20.408	-131.372	  1.03519	  0.05881	  0.98127	  0.00228	  1.06872	 -0.05573	  1.28922	707.80701	 23.30	
 20.410	-126.511	  1.03741	  0.09603	  0.93122	 -0.02639	  1.11337	 -0.05464	  1.29328	707.80103	 23.30	
 20.400	-121.604	  1.03359	  0.13721	  0.87278	 -0.05136	  1.14743	 -0.05371	  1.28798	707.77399	 23.30	
 20.403	-116.741	  1.03210	  0.18129	  0.81412	 -0.07293	  1.17849	 -0.05335	  1.28699	707.86700	 23.40	
 20.413	-111.900	  1.03076	  0.22655	  0.75427	 -0.09288	  1.20509	 -0.05089	  1.28642	707.73901	 23.40	
 20.398	-107.004	  1.03152	  0.27668	  0.69440	 -0.10751	  1.22785	 -0.04955	  1.28867	707.82501	 23.40	
 20.394	-102.132	  1.03735	  0.33205	  0.63614	 -0.11964	  1.25147	 -0.04962	  1.29533	707.83600	 23.40	
 20.403	-97.332	  1.03002	  0.38402	  0.57144	 -0.12672	  1.25338	 -0.04665	  1.28618	707.95001	 23.40	
 20.392	-92.440	  1.03006	  0.44204	  0.51161	 -0.12861	  1.25776	 -0.04655	  1.28639	707.96503	 23.40	
 20.392	-87.560	  1.03197	  0.50295	  0.45244	 -0.12929	  1.26008	 -0.04376	  1.28770	707.98999	 23.40	
 20.403	-82.668	  1.02814	  0.56117	  0.39236	 -0.12529	  1.24984	 -0.04163	  1.28264	707.90900	 23.40	
 20.394	-77.868	  1.03459	  0.62505	  0.33966	 -0.11812	  1.24645	 -0.03985	  1.28901	707.79303	 23.40	
 20.398	-72.996	  1.03189	  0.68519	  0.28529	 -0.10678	  1.22712	 -0.04096	  1.28599	707.94598	 23.40	
 20.413	-68.100	  1.03142	  0.74533	  0.23403	 -0.09189	  1.20408	 -0.04381	  1.28386	707.89203	 23.40	
 20.403	-63.259	  1.03389	  0.80651	  0.18788	 -0.07289	  1.17874	 -0.04332	  1.28485	707.85303	 23.40	
 20.400	-58.396	  1.03086	  0.86224	  0.14283	 -0.05018	  1.14254	 -0.04505	  1.28149	707.81598	 23.40	
 20.410	-53.489	  1.03602	  0.92269	  0.10058	 -0.02716	  1.11154	 -0.04498	  1.28783	707.83197	 23.40	
 20.408	-48.628	  1.03835	  0.97819	  0.06397	  0.00262	  1.07238	 -0.04896	  1.28877	707.97302	 23.40	
 20.396	-43.773	  1.03780	  1.02626	  0.03074	  0.03682	  1.02442	 -0.04769	  1.28751	707.78998	 23.40	
 20.392	-38.938	  1.03713	  1.07210	  0.00118	  0.07385	  0.97411	 -0.04931	  1.28587	707.96198	 23.40	
 20.397	-34.097	  1.03757	  1.11388	 -0.02685	  0.11189	  0.92267	 -0.04695	  1.28716	707.80200	 23.40	
 20.405	-29.165	  1.03779	  1.15165	 -0.05130	  0.15454	  0.86671	 -0.04576	  1.28759	707.84900	 23.40	
 20.401	-24.295	  1.03923	  1.18471	 -0.07051	  0.20199	  0.80991	 -0.04622	  1.28973	707.90002	 23.40	
 20.392	-19.504	  1.04298	  1.21470	 -0.08640	  0.25259	  0.75390	 -0.04364	  1.29430	707.91901	 23.50	
 20.410	-14.577	  1.04084	  1.23367	 -0.10049	  0.30386	  0.69187	 -0.04215	  1.29244	707.76202	 23.50	
 20.407	 -9.736	  1.03897	  1.24574	 -0.10747	  0.35917	  0.63016	 -0.04232	  1.28993	707.93201	 23.50	
 20.401	 -4.847	  1.04009	  1.25629	 -0.11313	  0.41737	  0.57059	 -0.04214	  1.29053	707.84399	 23.50	
 20.400	  0.000	  1.03432	  1.25368	 -0.11402	  0.47328	  0.50854	 -0.04195	  1.28465	707.85999	 23.50	
 20.401	  4.847	  1.03973	  1.25950	 -0.11283	  0.53660	  0.45273	 -0.04219	  1.29266	708.00897	 23.50	
 20.407	  9.736	  1.04229	  1.25598	 -0.10755	  0.59902	  0.39771	 -0.04083	  1.29545	707.88800	 23.50	
 20.410	 14.577	  1.03909	  1.24025	 -0.09784	  0.65876	  0.34234	 -0.04079	  1.29274	707.93201	 23.50	
 20.392	 19.504	  1.03905	  1.22110	 -0.08383	  0.72213	  0.28963	 -0.04231	  1.29131	708.04102	 23.50	
 20.401	 24.295	  1.03906	  1.19857	 -0.06755	  0.78101	  0.24163	 -0.04339	  1.29002	707.82898	 23.50	
 20.405	 29.165	  1.03646	  1.16762	 -0.04786	  0.83842	  0.19435	 -0.04441	  1.28864	707.88800	 23.50	
 20.397	 34.097	  1.03504	  1.13066	 -0.02260	  0.89615	  0.15142	 -0.04799	  1.28599	707.95898	 23.50	
 20.392	 38.938	  1.03603	  1.09246	  0.00448	  0.95003	  0.11203	 -0.05062	  1.28611	707.77002	 23.50	
 20.396	 43.773	  1.03856	  1.05147	  0.03448	  1.00261	  0.07661	 -0.05254	  1.28805	707.83600	 23.50	
 20.408	 48.628	  1.03525	  1.00047	  0.06831	  1.04703	  0.04302	 -0.05345	  1.28408	707.80499	 23.50	
 20.410	 53.489	  1.03706	  0.95067	  0.10586	  1.09319	  0.01328	 -0.05399	  1.28676	707.75897	 23.60	
 20.400	 58.396	  1.03699	  0.89514	  0.14755	  1.13135	 -0.01291	 -0.05299	  1.28597	707.81000	 23.60	
 20.403	 63.259	  1.03725	  0.83768	  0.19274	  1.16314	 -0.03320	 -0.05222	  1.28467	707.82397	 23.60	
 20.413	 68.100	  1.04214	  0.78303	  0.24056	  1.19580	 -0.05137	 -0.05317	  1.29000	707.85602	 23.60	
 20.398	 72.996	  1.03893	  0.71915	  0.29091	  1.21352	 -0.06658	 -0.05417	  1.28490	707.75702	 23.60	
 20.394	 77.868	  1.04119	  0.65932	  0.34581	  1.23158	 -0.07667	 -0.05571	  1.28667	707.73700	 23.60	
 20.403	 82.668	  1.03809	  0.59762	  0.39888	  1.23783	 -0.08361	 -0.05415	  1.28140	707.87799	 23.60	
 20.392	 87.560	  1.04518	  0.54063	  0.46024	  1.25021	 -0.08688	 -0.05618	  1.28892	707.78699	 23.60	
 20.392	 92.440	  1.04462	  0.48005	  0.51964	  1.24792	 -0.08576	 -0.05456	  1.28692	707.76202	 23.60	
 20.403	 97.332	  1.04614	  0.42151	  0.58124	  1.24419	 -0.08325	 -0.05356	  1.28738	707.74200	 23.60	
 20.394	102.132	  1.04273	  0.36543	  0.63925	  1.22899	 -0.07499	 -0.05111	  1.28264	707.69098	 23.60	
 20.398	107.004	  1.04703	  0.31189	  0.70319	  1.21709	 -0.06505	 -0.05398	  1.28764	707.70801	 23.60	
 20.413	111.900	  1.04912	  0.26070	  0.76475	  1.19682	 -0.05120	 -0.05536	  1.28907	707.77002	 23.60	
 20.403	116.741	  1.04169	  0.21074	  0.81805	  1.16172	 -0.03385	 -0.05646	  1.27921	707.79401	 23.60	
 20.400	121.604	  1.04788	  0.16668	  0.88023	  1.13584	 -0.01252	 -0.05941	  1.28743	707.85999	 23.60	
 20.410	126.511	  1.05263	  0.12413	  0.94005	  1.10250	  0.01192	 -0.06135	  1.29369	707.78497	 23.60	
 20.408	131.372	  1.04662	  0.08516	  0.98654	  1.05297	  0.04105	 -0.06192	  1.28517	707.84100	 23.60	
 20.396	136.227	  1.04831	  0.05091	  1.03744	  1.00753	  0.07433	 -0.06212	  1.28748	707.72302	 23.60	
 20.392	141.062	  1.04413	  0.01820	  1.07813	  0.95318	  0.10884	 -0.06135	  1.28323	707.71997	 23.60	
 20.397	145.903	  1.04991	 -0.00995	  1.12412	  0.90521	  0.14769	 -0.06129	  1.28992	707.70801	 23.60	
 20.405	150.835	  1.05297	 -0.03491	  1.16387	  0.84930	  0.19222	 -0.05798	  1.29402	707.80200	 23.70	
 20.401	155.705	  1.04483	 -0.05572	  1.18439	  0.78407	  0.23647	 -0.06063	  1.28459	707.74298	 23.70	
 20.392	160.496	  1.04902	 -0.07268	  1.21382	  0.72880	  0.28530	 -0.06089	  1.29107	707.78699	 23.70	
 20.410	165.423	  1.04581	 -0.08763	  1.22953	  0.66340	  0.33642	 -0.06247	  1.28651	707.75299	 23.70	
 20.407	170.264	  1.04371	 -0.09723	  1.24119	  0.60121	  0.38998	 -0.06011	  1.28506	707.70398	 23.70	
 20.401	175.153	  1.04219	 -0.10436	  1.24689	  0.53997	  0.44491	 -0.05840	  1.28455	707.65198	 23.70	
  0.141	 45.000	  1.29195	  0.73093	  0.72472	  0.72831	  0.73393	  0.00900	  1.28238	707.82501	 23.70	
  4.001	128.691	  1.29415	  0.63595	  0.80322	  0.81659	  0.63000	  0.00304	  1.28887	707.76801	 23.70	
  4.002	 76.995	  1.29663	  0.75421	  0.68382	  0.84710	  0.60778	  0.00413	  1.29159	707.82397	 23.70	
  4.002	 25.892	  1.29288	  0.85099	  0.59174	  0.76509	  0.67412	  0.00263	  1.28763	707.83801	 23.70	
  4.002	-25.892	  1.28709	  0.84546	  0.58885	  0.64003	  0.79329	  0.00038	  1.28303	707.78198	 23.70	
  4.002	-76.995	  1.29639	  0.75014	  0.68096	  0.57421	  0.87896	  0.00078	  1.29186	707.84601	 23.70	
  4.001	-128.691	  1.29303	  0.63008	  0.80284	  0.59696	  0.84719	  0.00263	  1.28851	707.80701	 23.70	
  4.000	180.000	  1.29187	  0.58438	  0.85846	  0.70180	  0.73243	  0.00378	  1.28705	707.83801	 23.70	
  8.000	180.000	  1.26699	  0.41416	  0.98934	  0.67231	  0.70187	 -0.01361	  1.28713	707.80798	 23.70	
  7.991	-152.370	  1.26556	  0.44071	  0.95157	  0.54054	  0.83957	 -0.01213	  1.28645	707.70300	 23.70	
  7.997	-124.550	  1.26601	  0.52303	  0.85242	  0.44353	  0.95347	 -0.01398	  1.28935	707.57703	 23.70	
  8.006	-96.837	  1.26787	  0.64855	  0.71761	  0.39998	  1.00948	 -0.01727	  1.29170	707.74500	 23.70	
  7.988	-69.228	  1.26231	  0.78635	  0.57749	  0.41377	  0.98630	 -0.01891	  1.28425	707.64203	 23.70	
  7.997	-41.563	  1.26838	  0.91307	  0.47277	  0.48571	  0.90636	 -0.02014	  1.28979	707.59302	 23.70	
  8.008	-13.821	  1.27330	  0.99025	  0.41775	  0.60565	  0.77943	 -0.01651	  1.29482	707.78998	 23.70	
  8.008	 13.821	  1.26681	  0.98879	  0.41668	  0.74353	  0.63702	 -0.01423	  1.28788	707.69501	 23.70	
  7.997	 41.563	  1.26639	  0.91930	  0.47496	  0.87304	  0.52103	 -0.01130	  1.28584	707.71198	 23.70	
  7.988	 69.228	  1.26123	  0.79542	  0.57924	  0.95560	  0.44864	 -0.01080	  1.28101	707.66699	 23.70	
  8.006	 96.837	  1.26506	  0.65734	  0.71644	  0.97649	  0.43495	 -0.01308	  1.28448	707.76001	 23.70	
  7.997	124.550	  1.26833	  0.53327	  0.85396	  0.92575	  0.47815	 -0.01433	  1.28752	707.68701	 23.70	
  7.991	152.370	  1.27163	  0.44886	  0.95616	  0.81392	  0.57489	 -0.01324	  1.28993	707.71802	 23.70	
 12.009	161.059	  1.21623	  0.26269	  1.07249	  0.76976	  0.51704	 -0.03583	  1.28293	707.69098	 23.70	
 12.013	142.081	  1.21987	  0.32359	  1.00066	  0.90884	  0.40197	 -0.03833	  1.28719	707.69501	 23.70	
 12.006	123.113	  1.21825	  0.41881	  0.88402	  1.01274	  0.31829	 -0.03863	  1.28484	707.66602	 23.70	
 12.007	104.200	  1.21638	  0.54206	  0.74412	  1.07608	  0.26938	 -0.03651	  1.28333	707.64398	 23.70	
 11.989	 85.301	  1.21680	  0.68435	  0.59985	  1.08967	  0.26135	 -0.03374	  1.28564	707.67999	 23.70	
 12.013	 66.294	  1.21836	  0.82988	  0.46638	  1.05299	  0.29093	 -0.03245	  1.28758	707.68903	 23.70	
 12.012	 47.388	  1.21562	  0.95698	  0.35589	  0.96337	  0.35801	 -0.03501	  1.28605	707.55103	 23.70	
 11.990	 28.440	  1.21616	  1.05197	  0.27988	  0.84091	  0.45937	 -0.03326	  1.28768	707.69800	 23.80	
 11.991	  9.464	  1.21297	  1.09770	  0.23965	  0.69616	  0.58611	 -0.03890	  1.28443	707.67999	 23.70	
 11.991	 -9.464	  1.21074	  1.09242	  0.23876	  0.55114	  0.72690	 -0.03894	  1.28237	707.60101	 23.70	
 11.990	-28.440	  1.21435	  1.04183	  0.27806	  0.42306	  0.87165	 -0.03874	  1.28785	707.68103	 23.80	
 12.012	-47.388	  1.21135	  0.94110	  0.35256	  0.32091	  0.98902	 -0.04211	  1.28319	707.60999	 23.80	
 12.013	-66.294	  1.21384	  0.81233	  0.46290	  0.25383	  1.07783	 -0.04326	  1.28733	707.63202	 23.80	
 11.989	-85.301	  1.21070	  0.66658	  0.59591	  0.22579	  1.11165	 -0.04381	  1.28513	707.66602	 23.70	
 12.007	-104.200	  1.21203	  0.52572	  0.74117	  0.23395	  1.10069	 -0.03934	  1.28658	707.56299	 23.80	
 12.006	-123.113	  1.21794	  0.40536	  0.88375	  0.28328	  1.04231	 -0.03665	  1.29341	707.63501	 23.80	
 12.013	-142.081	  1.22124	  0.31499	  1.00125	  0.37132	  0.93692	 -0.03339	  1.29316	707.65802	 23.80	
 12.009	-161.059	  1.22896	  0.25983	  1.08396	  0.49139	  0.80656	 -0.03586	  1.30089	707.74500	 23.80	
 16.000	180.000	  1.15490	  0.07974	  1.19267	  0.57129	  0.59860	 -0.05894	  1.29514	707.71802	 23.80	
 15.990	-165.604	  1.15148	  0.09258	  1.17041	  0.43430	  0.74049	 -0.05972	  1.29297	707.77600	 23.80	
 16.002	-151.165	  1.14762	  0.13035	  1.10936	  0.30975	  0.87929	 -0.05573	  1.29110	707.70801	 23.80	
 16.002	-136.836	  1.14640	  0.19714	  1.01627	  0.20999	  1.00542	 -0.05549	  1.29230	707.60400	 23.80	
 15.995	-122.439	  1.13928	  0.28796	  0.89050	  0.13535	  1.09876	 -0.05582	  1.28493	707.55603	 23.80	
 15.993	-107.966	  1.14122	  0.40589	  0.75608	  0.09052	  1.16870	 -0.05723	  1.28933	707.55103	 23.80	
 16.005	-93.629	  1.14152	  0.53502	  0.61109	  0.06498	  1.19957	 -0.05468	  1.29085	707.58801	 23.80	
 15.992	-79.234	  1.14017	  0.67729	  0.47217	  0.07292	  1.18797	 -0.05167	  1.28793	707.62701	 23.80	
 16.009	-64.774	  1.13879	  0.81813	  0.34494	  0.10492	  1.13819	 -0.05355	  1.28451	707.52301	 23.80	
 15.997	-50.364	  1.14049	  0.95052	  0.23989	  0.16611	  1.05577	 -0.05422	  1.28483	707.67999	 23.80	
 15.997	-36.045	  1.15150	  1.06967	  0.16156	  0.25595	  0.95328	 -0.05567	  1.29662	707.58002	 23.80	
 16.000	-21.597	  1.15007	  1.14876	  0.10326	  0.36491	  0.81738	 -0.05209	  1.29480	707.70001	 23.80	
 16.003	 -7.169	  1.14673	  1.18800	  0.07723	  0.49655	  0.67228	 -0.04951	  1.29198	707.72803	 23.80	
 16.003	  7.169	  1.14797	  1.19243	  0.07763	  0.63962	  0.53281	 -0.05190	  1.29305	707.70300	 23.80	
 16.000	 21.597	  1.14396	  1.15235	  0.10261	  0.78192	  0.39988	 -0.05054	  1.28883	707.65900	 23.80	
 15.997	 36.045	  1.14490	  1.07948	  0.15658	  0.91856	  0.28787	 -0.05050	  1.28971	707.59399	 23.80	
 15.997	 50.364	  1.14579	  0.97393	  0.23958	  1.03559	  0.20078	 -0.05555	  1.28968	707.52600	 23.80	
 16.009	 64.774	  1.14019	  0.83925	  0.34129	  1.11572	  0.13439	 -0.05307	  1.28263	707.55103	 23.80	
 15.992	 79.234	  1.14885	  0.70082	  0.47095	  1.17346	  0.10024	 -0.05618	  1.29039	707.55103	 23.80	
 16.005	 93.629	  1.14894	  0.55455	  0.61176	  1.18162	  0.09259	 -0.05701	  1.28889	707.58197	 23.80	
 15.993	107.966	  1.14755	  0.42038	  0.75567	  1.14956	  0.11441	 -0.05609	  1.28391	707.66400	 23.80	
 15.995	122.439	  1.14707	  0.30155	  0.89451	  1.07972	  0.16281	 -0.06155	  1.28346	707.50598	 23.80	
 16.002	136.836	  1.14785	  0.20709	  1.01577	  0.97988	  0.23758	 -0.06136	  1.28432	707.62402	 23.80	
 16.002	151.165	  1.14665	  0.13691	  1.10725	  0.85351	  0.33578	 -0.05897	  1.28299	707.62402	 23.80	
 15.990	165.604	  1.14818	  0.09403	  1.16654	  0.71133	  0.45803	 -0.06059	  1.28612	707.69702	 23.80	
 20.003	168.362	  1.05919	 -0.07437	  1.23628	  0.63588	  0.38287	 -0.06387	  1.29108	707.65802	 23.80	
 20.008	156.764	  1.05902	 -0.04111	  1.18998	  0.77876	  0.26188	 -0.06162	  1.28938	707.56500	 23.80	
 20.000	145.147	  1.05776	  0.01197	  1.11234	  0.91280	  0.15697	 -0.05968	  1.28681	707.60400	 23.80	
 19.995	133.545	  1.06421	  0.08691	  1.01548	  1.03753	  0.07417	 -0.06232	  1.29334	707.59698	 23.80	
 20.009	121.926	  1.06001	  0.17872	  0.88765	  1.13266	  0.00691	 -0.05994	  1.28936	707.71198	 23.80	
 20.005	110.327	  1.05545	  0.28928	  0.74748	  1.19556	 -0.03708	 -0.05591	  1.28355	707.76801	 23.80	
 19.989	 98.733	  1.05309	  0.41572	  0.60493	  1.23111	 -0.05999	 -0.05352	  1.28179	707.68701	 23.80	
 19.999	 87.075	  1.05345	  0.55423	  0.46485	  1.24082	 -0.06511	 -0.05660	  1.28497	707.68402	 23.90	
 19.992	 75.457	  1.05532	  0.69794	  0.33454	  1.22155	 -0.04972	 -0.05575	  1.28949	707.65002	 23.90	
 20.009	 63.844	  1.04946	  0.83488	  0.21498	  1.16312	 -0.01449	 -0.05296	  1.28493	707.79303	 23.90	
 19.989	 52.269	  1.05198	  0.96699	  0.11509	  1.08278	  0.04127	 -0.05183	  1.28968	707.70599	 23.90	
 19.999	 40.602	  1.04824	  1.07641	  0.03302	  0.96907	  0.11726	 -0.05303	  1.28730	707.72803	 23.90	
 20.004	 29.051	  1.05315	  1.17033	 -0.03034	  0.84468	  0.21271	 -0.04476	  1.29427	707.77301	 23.90	
 20.005	 17.433	  1.04802	  1.22338	 -0.07069	  0.70074	  0.32494	 -0.04133	  1.28876	707.66901	 23.90	
 20.006	  5.780	  1.04626	  1.24808	 -0.09227	  0.55533	  0.45178	 -0.04210	  1.28617	707.55902	 23.90	
 20.006	 -5.780	  1.04667	  1.24448	 -0.09223	  0.41643	  0.58890	 -0.04144	  1.28659	707.55701	 23.90	
 20.005	-17.433	  1.05019	  1.21521	 -0.07342	  0.28637	  0.73287	 -0.04375	  1.29072	707.58197	 23.90	
 20.004	-29.051	  1.04701	  1.14715	 -0.03301	  0.17165	  0.86669	 -0.04833	  1.28613	707.60101	 23.90	
 19.999	-40.602	  1.04718	  1.05448	  0.02778	  0.07708	  0.99180	 -0.04696	  1.28636	707.52301	 23.90	
 19.989	-52.269	  1.04693	  0.93769	  0.10887	 -0.00063	  1.10008	 -0.04526	  1.28682	707.51501	 23.90	
 20.009	-63.844	  1.04645	  0.80544	  0.20813	 -0.05653	  1.18147	 -0.04566	  1.28711	707.52301	 23.90	
 19.992	-75.457	  1.04355	  0.66201	  0.32574	 -0.09176	  1.23050	 -0.04273	  1.28566	707.52502	 23.90	
 19.999	-87.075	  1.04795	  0.52147	  0.45889	 -0.10829	  1.25963	 -0.04546	  1.29308	707.50702	 23.90	
 19.989	-98.733	  1.04396	  0.38187	  0.59919	 -0.10346	  1.24882	 -0.05006	  1.28962	707.58502	 23.90	
 20.005	-110.327	  1.03835	  0.25680	  0.73816	 -0.07731	  1.20483	 -0.05247	  1.28301	707.72601	 23.90	
 20.009	-121.926	  1.04597	  0.15077	  0.87968	 -0.03103	  1.14407	 -0.05472	  1.28985	707.70801	 23.90	
 19.995	-133.545	  1.04871	  0.06241	  1.00487	  0.03636	  1.04916	 -0.05750	  1.29102	707.64697	 23.90	
 20.000	-145.147	  1.05032	 -0.00698	  1.10873	  0.12328	  0.93052	 -0.05570	  1.29126	707.66699	 23.90	
 20.008	-156.764	  1.05058	 -0.05474	  1.18461	  0.23002	  0.79603	 -0.05762	  1.28858	707.55902	 23.90	
 20.003	-168.362	  1.04394	 -0.08083	  1.22040	  0.35098	  0.64985	 -0.05501	  1.27752	707.48999	 23.90	
 20.000	180.000	  1.05356	 -0.08811	  1.24567	  0.48989	  0.51491	 -0.05677	  1.28674	707.43799	 23.90	
