FileType=PCF
NHL=14
Date=05/31/19	11:33:05
Facility=APL
Serial=16071-14
Customer=NASA
NP=6
Mach=0.080000
Calibration=1:1
CalPts=490
TstPts=95
PortNumbering=AP Standard
Units=Torr C m/s kg/m^3 deg mm 
Theta[deg]	Phi[deg]	P1[Torr]	P2[Torr]	P3[Torr]	P4[Torr]	P5[Torr]	P6[Torr]	Pt[Torr]	Ps[Abs,Torr]	Ts[C]	
  0.000	  0.000	  3.18857	  1.33787	  1.44405	  1.38669	  1.35972	  0.06289	  3.17949	702.59998	 32.50	
  1.691	128.401	  3.18637	  1.22650	  1.52449	  1.47186	  1.24619	  0.05622	  3.17914	702.50000	 32.50	
  1.692	 77.194	  3.18666	  1.33829	  1.40791	  1.52620	  1.20235	  0.05809	  3.17897	702.60999	 32.50	
  1.699	 26.182	  3.18722	  1.45376	  1.30950	  1.45028	  1.26644	  0.06297	  3.17903	702.51001	 32.50	
  1.699	-26.182	  3.18683	  1.47442	  1.29775	  1.32408	  1.39704	  0.06217	  3.17891	702.53998	 32.50	
  1.692	-77.194	  3.18658	  1.38539	  1.37549	  1.24941	  1.47729	  0.06053	  3.17662	702.57001	 32.50	
  1.691	-128.401	  3.18709	  1.26314	  1.49335	  1.25772	  1.46067	  0.05637	  3.17922	702.44000	 32.50	
  1.700	180.000	  3.18618	  1.19096	  1.57007	  1.34753	  1.36528	  0.05557	  3.17990	702.69000	 32.50	
  3.400	180.000	  3.17453	  1.00535	  1.73528	  1.30569	  1.36035	  0.04332	  3.17866	702.59998	 32.50	
  3.388	-152.325	  3.17605	  1.06277	  1.67355	  1.17351	  1.50342	  0.04467	  3.17788	702.54999	 32.50	
  3.397	-124.529	  3.17781	  1.17002	  1.54981	  1.08763	  1.61226	  0.04507	  3.17781	702.46002	 32.50	
  3.399	-96.763	  3.17936	  1.31289	  1.40274	  1.05969	  1.65548	  0.04857	  3.17619	702.51001	 32.50	
  3.394	-69.283	  3.18361	  1.46355	  1.26582	  1.09271	  1.61860	  0.05093	  3.17907	702.51001	 32.50	
  3.400	-41.398	  3.18580	  1.58862	  1.15993	  1.18474	  1.50939	  0.05205	  3.17941	702.54999	 32.50	
  3.401	-14.021	  3.18323	  1.64642	  1.11035	  1.31574	  1.36430	  0.05345	  3.17625	702.54999	 32.50	
  3.401	 14.021	  3.18400	  1.62562	  1.12255	  1.47220	  1.20973	  0.05342	  3.17846	702.59998	 32.50	
  3.400	 41.398	  3.18488	  1.53235	  1.19978	  1.60691	  1.09258	  0.05507	  3.18022	702.54999	 32.50	
  3.394	 69.283	  3.17876	  1.38758	  1.32257	  1.68474	  1.02379	  0.05012	  3.17799	702.53998	 32.50	
  3.399	 96.763	  3.17550	  1.23083	  1.47212	  1.68120	  1.02607	  0.04478	  3.17641	702.53998	 32.50	
  3.397	124.529	  3.17621	  1.09990	  1.61847	  1.60596	  1.08482	  0.04245	  3.18032	702.51001	 32.50	
  3.388	152.325	  3.17380	  1.02503	  1.70977	  1.46425	  1.20416	  0.04145	  3.17866	702.54999	 32.50	
  5.099	161.165	  3.14975	  0.82831	  1.88664	  1.42566	  1.19008	  0.02491	  3.17787	702.45001	 32.50	
  5.109	142.013	  3.14891	  0.87800	  1.81917	  1.58804	  1.04185	  0.02281	  3.17612	702.54999	 32.50	
  5.095	123.033	  3.15043	  0.97353	  1.70186	  1.72044	  0.93063	  0.02278	  3.17499	702.52002	 32.50	
  5.105	104.191	  3.15466	  1.10576	  1.55642	  1.81492	  0.86060	  0.02563	  3.17649	702.57001	 32.50	
  5.093	 85.207	  3.15975	  1.26489	  1.39577	  1.85564	  0.83394	  0.03284	  3.17847	702.59998	 32.50	
  5.104	 66.290	  3.16426	  1.43278	  1.23677	  1.83751	  0.84800	  0.03820	  3.17815	702.58002	 32.50	
  5.094	 47.331	  3.16749	  1.58485	  1.10231	  1.75654	  0.91565	  0.04107	  3.17787	702.63000	 32.50	
  5.089	 28.397	  3.16937	  1.71006	  1.00009	  1.62904	  1.02211	  0.04243	  3.17814	702.59998	 32.50	
  5.096	  9.576	  3.17267	  1.79348	  0.93604	  1.47771	  1.15828	  0.04118	  3.17791	702.64001	 32.50	
  5.096	 -9.576	  3.17470	  1.81335	  0.92219	  1.31050	  1.32469	  0.04033	  3.17827	702.54999	 32.50	
  5.089	-28.397	  3.17396	  1.77577	  0.95152	  1.15758	  1.48701	  0.03837	  3.17938	702.57001	 32.50	
  5.094	-47.331	  3.17360	  1.68111	  1.02662	  1.02738	  1.63373	  0.03441	  3.17778	702.53998	 32.50	
  5.104	-66.290	  3.17361	  1.54757	  1.14149	  0.93418	  1.74937	  0.03445	  3.18008	702.46997	 32.50	
  5.093	-85.207	  3.16935	  1.38592	  1.28974	  0.88526	  1.81693	  0.03397	  3.17796	702.62000	 32.50	
  5.105	-104.191	  3.16710	  1.23097	  1.44573	  0.88145	  1.82067	  0.03345	  3.17888	702.57001	 32.50	
  5.095	-123.033	  3.16314	  1.08217	  1.60392	  0.91956	  1.76725	  0.03216	  3.17954	702.56000	 32.50	
  5.109	-142.013	  3.16089	  0.95169	  1.74848	  0.99749	  1.66431	  0.03035	  3.17980	702.57001	 32.50	
  5.099	-161.165	  3.15528	  0.86896	  1.84691	  1.11816	  1.51451	  0.02652	  3.17957	702.45001	 32.50	
  5.100	180.000	  3.15309	  0.82685	  1.89862	  1.26459	  1.35417	  0.02649	  3.18058	702.57001	 32.50	
  6.800	180.000	  3.11745	  0.64013	  2.05059	  1.21278	  1.34229	  0.00614	  3.17843	702.57001	 32.50	
  6.796	-166.229	  3.12198	  0.67337	  2.01154	  1.06746	  1.50289	  0.00667	  3.18135	702.60999	 32.50	
  6.808	-152.311	  3.12256	  0.73211	  1.93089	  0.93348	  1.65936	  0.00838	  3.17784	702.46997	 32.50	
  6.795	-138.383	  3.12909	  0.83646	  1.81075	  0.82589	  1.79516	  0.00833	  3.17924	702.59998	 32.50	
  6.792	-124.591	  3.13247	  0.95679	  1.67069	  0.74798	  1.89587	  0.00957	  3.17982	702.64001	 32.50	
  6.787	-110.754	  3.13638	  1.10016	  1.51334	  0.70177	  1.96208	  0.01182	  3.17896	702.63000	 32.50	
  6.800	-96.985	  3.14208	  1.25539	  1.35606	  0.68409	  1.98961	  0.01063	  3.18018	702.53998	 32.50	
  6.800	-83.015	  3.14604	  1.41924	  1.19859	  0.70174	  1.96555	  0.01102	  3.17977	702.54999	 32.50	
  6.787	-69.246	  3.14721	  1.57650	  1.05706	  0.74758	  1.90033	  0.01401	  3.17775	702.46002	 32.50	
  6.792	-55.409	  3.15218	  1.72331	  0.93330	  0.82886	  1.80086	  0.01301	  3.17986	702.52002	 32.50	
  6.795	-41.617	  3.15314	  1.84130	  0.83523	  0.93404	  1.67133	  0.01511	  3.17949	702.59003	 32.50	
  6.808	-27.689	  3.15142	  1.92554	  0.76812	  1.07198	  1.51168	  0.01929	  3.17674	702.56000	 32.50	
  6.796	-13.771	  3.15367	  1.97266	  0.73543	  1.23067	  1.34603	  0.02148	  3.17868	702.58002	 32.50	
  6.800	  0.000	  3.15253	  1.97300	  0.73137	  1.38722	  1.18807	  0.02235	  3.17841	702.50000	 32.50	
  6.796	 13.771	  3.15012	  1.92848	  0.76385	  1.55460	  1.02884	  0.02367	  3.17856	702.57001	 32.50	
  6.808	 27.689	  3.14928	  1.84615	  0.82697	  1.70963	  0.89424	  0.02565	  3.18072	702.57001	 32.50	
  6.795	 41.617	  3.14523	  1.71949	  0.92804	  1.83966	  0.78751	  0.02230	  3.18019	702.54999	 32.50	
  6.792	 55.409	  3.14351	  1.57727	  1.04983	  1.93663	  0.71099	  0.02244	  3.17972	702.53003	 32.50	
  6.787	 69.246	  3.13836	  1.41794	  1.18954	  1.99920	  0.65983	  0.01889	  3.18016	702.50000	 32.50	
  6.800	 83.015	  3.13316	  1.25505	  1.34175	  2.02005	  0.64109	  0.01218	  3.17978	702.50000	 32.50	
  6.800	 96.985	  3.13007	  1.09497	  1.50552	  1.99875	  0.65874	  0.00620	  3.18118	702.62000	 32.50	
  6.787	110.754	  3.12475	  0.94877	  1.66344	  1.93017	  0.70689	  0.00384	  3.17795	702.66998	 32.50	
  6.792	124.591	  3.12164	  0.82791	  1.80560	  1.82672	  0.78525	  0.00182	  3.17994	702.58002	 32.50	
  6.795	138.383	  3.12107	  0.72877	  1.92542	  1.69322	  0.89558	  0.00055	  3.18111	702.53003	 32.50	
  6.808	152.311	  3.11640	  0.66522	  2.00737	  1.53866	  1.02834	  0.00476	  3.17782	702.64001	 32.50	
  6.796	166.229	  3.11724	  0.64038	  2.04709	  1.37374	  1.17996	  0.00506	  3.17801	702.65002	 32.50	
  8.491	168.704	  3.07096	  0.44931	  2.20091	  1.32095	  1.15669	 -0.01986	  3.17899	702.73999	 32.50	
  8.502	157.493	  3.06949	  0.46586	  2.17031	  1.48270	  1.00405	 -0.01908	  3.17814	702.67999	 32.50	
  8.494	146.194	  3.07144	  0.51701	  2.10070	  1.64993	  0.85433	 -0.02113	  3.17940	702.62000	 32.50	
  8.495	135.039	  3.07305	  0.58764	  2.00511	  1.80339	  0.72764	 -0.02440	  3.18049	702.65997	 32.50	
  8.487	123.723	  3.07411	  0.68890	  1.87628	  1.93528	  0.62069	 -0.02392	  3.17699	702.59998	 32.50	
  8.492	112.575	  3.08075	  0.81239	  1.73439	  2.04281	  0.54096	 -0.02084	  3.17890	702.70001	 32.50	
  8.510	101.220	  3.08371	  0.95734	  1.56782	  2.12134	  0.48202	 -0.01913	  3.17997	702.65002	 32.50	
  8.500	 90.000	  3.08694	  1.11218	  1.40416	  2.16090	  0.45686	 -0.01609	  3.17907	702.58002	 32.50	
  8.510	 78.780	  3.08935	  1.27367	  1.24087	  2.17054	  0.44543	 -0.01092	  3.17817	702.59003	 32.50	
  8.492	 67.425	  3.09387	  1.44511	  1.08277	  2.13626	  0.47474	 -0.00316	  3.17605	702.62000	 32.50	
  8.487	 56.277	  3.10084	  1.61062	  0.94020	  2.07457	  0.52395	 -0.00260	  3.18058	702.46997	 32.50	
  8.495	 44.961	  3.10466	  1.76251	  0.81404	  1.97810	  0.60002	  0.00061	  3.17835	702.39001	 32.50	
  8.494	 33.806	  3.10741	  1.89611	  0.70888	  1.85175	  0.70061	  0.00407	  3.17639	702.51001	 32.50	
  8.502	 22.507	  3.11214	  2.00491	  0.62503	  1.70617	  0.82168	  0.00488	  3.17977	702.46997	 32.50	
  8.491	 11.296	  3.11491	  2.07974	  0.57066	  1.54422	  0.96902	  0.00100	  3.17793	702.53998	 32.50	
  8.500	  0.000	  3.11740	  2.12028	  0.54252	  1.37818	  1.12734	 -0.00237	  3.17725	702.53003	 32.50	
  8.491	-11.296	  3.11985	  2.12815	  0.54041	  1.20841	  1.29530	 -0.00216	  3.17863	702.59998	 32.50	
  8.502	-22.507	  3.12028	  2.09739	  0.56161	  1.04856	  1.46349	 -0.00454	  3.17878	702.48999	 32.50	
  8.494	-33.806	  3.11914	  2.02535	  0.61695	  0.90424	  1.62812	 -0.00721	  3.17707	702.57001	 32.50	
  8.495	-44.961	  3.11728	  1.92451	  0.69416	  0.77512	  1.78175	 -0.01262	  3.17806	702.51001	 32.50	
  8.487	-56.277	  3.11630	  1.79733	  0.79720	  0.66804	  1.91517	 -0.01289	  3.17960	702.48999	 32.50	
  8.492	-67.425	  3.11385	  1.65343	  0.91716	  0.58698	  2.01735	 -0.01238	  3.17837	702.51001	 32.50	
  8.510	-78.780	  3.10762	  1.48759	  1.05890	  0.52589	  2.09738	 -0.01485	  3.17852	702.45001	 32.50	
  8.500	-90.000	  3.10509	  1.32055	  1.21762	  0.50030	  2.13423	 -0.01804	  3.17936	702.65997	 32.50	
  8.510	-101.220	  3.09926	  1.15285	  1.37686	  0.49110	  2.14201	 -0.01781	  3.17861	702.59003	 32.50	
  8.492	-112.575	  3.09344	  0.99263	  1.54346	  0.51884	  2.10375	 -0.01410	  3.17747	702.59003	 32.50	
  8.487	-123.723	  3.09204	  0.84795	  1.70800	  0.56783	  2.03521	 -0.01666	  3.18066	702.58002	 32.50	
  8.495	-135.039	  3.08592	  0.72531	  1.85329	  0.64310	  1.93012	 -0.01725	  3.17897	702.53003	 32.50	
  8.494	-146.194	  3.08196	  0.61864	  1.98219	  0.73831	  1.80603	 -0.01569	  3.17921	702.54999	 32.50	
  8.502	-157.493	  3.07576	  0.53367	  2.08667	  0.85658	  1.65646	 -0.01445	  3.17814	702.56000	 32.50	
  8.491	-168.704	  3.07165	  0.47732	  2.15895	  0.99755	  1.49265	 -0.01709	  3.17654	702.48999	 32.50	
  8.500	180.000	  3.07044	  0.44767	  2.20017	  1.15114	  1.32449	 -0.02278	  3.17970	702.40002	 32.50	
 10.200	180.000	  3.01326	  0.26172	  2.34031	  1.08596	  1.29452	 -0.04951	  3.17934	702.44000	 32.50	
 10.191	-170.497	  3.01487	  0.28656	  2.30211	  0.92760	  1.46867	 -0.04483	  3.17888	702.54999	 32.50	
 10.210	-161.034	  3.01708	  0.33403	  2.23436	  0.78184	  1.63418	 -0.04348	  3.17864	702.48999	 32.50	
 10.194	-151.526	  3.01982	  0.40838	  2.13847	  0.65067	  1.79527	 -0.04352	  3.17802	702.53003	 32.50	
 10.190	-142.105	  3.02522	  0.49985	  2.01875	  0.54610	  1.93592	 -0.04603	  3.17691	702.57001	 32.50	
 10.215	-132.646	  3.03087	  0.60392	  1.88547	  0.45578	  2.05952	 -0.04715	  3.17926	702.51001	 32.50	
 10.203	-123.092	  3.03559	  0.73868	  1.72614	  0.38199	  2.16418	 -0.04428	  3.17910	702.53998	 32.60	
 10.192	-113.678	  3.04154	  0.88269	  1.56563	  0.33763	  2.23361	 -0.04417	  3.17992	702.46997	 32.60	
 10.208	-104.249	  3.04474	  1.03901	  1.39813	  0.30739	  2.27723	 -0.04829	  3.17839	702.58002	 32.60	
 10.210	-94.801	  3.05035	  1.20867	  1.23124	  0.30066	  2.28530	 -0.05211	  3.17927	702.59003	 32.60	
 10.210	-85.199	  3.05535	  1.37869	  1.06992	  0.31727	  2.26417	 -0.05094	  3.17826	702.46997	 32.60	
 10.208	-75.751	  3.05949	  1.55054	  0.91450	  0.35002	  2.21642	 -0.04665	  3.18022	702.46997	 32.60	
 10.192	-66.322	  3.06427	  1.71147	  0.77920	  0.41678	  2.12950	 -0.04515	  3.17958	702.45001	 32.60	
 10.203	-56.908	  3.06843	  1.85985	  0.66053	  0.49799	  2.02439	 -0.04413	  3.17976	702.50000	 32.60	
 10.215	-47.354	  3.06793	  1.99973	  0.54943	  0.60018	  1.88641	 -0.04579	  3.17704	702.52002	 32.60	
 10.190	-37.895	  3.07187	  2.10793	  0.47047	  0.72648	  1.73655	 -0.03988	  3.17887	702.45001	 32.60	
 10.194	-28.474	  3.07514	  2.19116	  0.41106	  0.86934	  1.57399	 -0.03273	  3.17956	702.46997	 32.60	
 10.210	-18.966	  3.07338	  2.25037	  0.36655	  1.01921	  1.40314	 -0.02782	  3.17961	702.50000	 32.60	
 10.191	 -9.503	  3.07476	  2.27414	  0.35153	  1.18417	  1.23392	 -0.02668	  3.17940	702.46002	 32.60	
 10.200	  0.000	  3.07412	  2.26577	  0.35582	  1.35132	  1.06759	 -0.02661	  3.17927	702.54999	 32.60	
 10.191	  9.503	  3.07131	  2.22756	  0.37997	  1.52078	  0.90795	 -0.02386	  3.18119	702.56000	 32.60	
 10.210	 18.966	  3.06401	  2.15801	  0.42187	  1.68719	  0.75238	 -0.02266	  3.17828	702.50000	 32.60	
 10.194	 28.474	  3.06561	  2.06298	  0.50071	  1.84359	  0.62762	 -0.01794	  3.18018	702.53003	 32.60	
 10.190	 37.895	  3.06037	  1.93592	  0.59178	  1.98477	  0.51549	 -0.02303	  3.17967	702.50000	 32.60	
 10.215	 47.354	  3.05401	  1.79553	  0.69967	  2.10746	  0.41561	 -0.02659	  3.17893	702.51001	 32.60	
 10.203	 56.908	  3.05194	  1.63616	  0.83053	  2.20618	  0.34565	 -0.02912	  3.18196	702.57001	 32.60	
 10.192	 66.322	  3.04642	  1.46863	  0.97628	  2.26756	  0.29515	 -0.02987	  3.17901	702.52002	 32.60	
 10.208	 75.751	  3.04272	  1.29525	  1.13192	  2.31000	  0.26407	 -0.03489	  3.18038	702.52002	 32.60	
 10.210	 85.199	  3.03207	  1.12773	  1.29226	  2.31458	  0.25140	 -0.04109	  3.17610	702.60999	 32.60	
 10.210	 94.801	  3.03015	  0.95992	  1.46491	  2.29135	  0.27327	 -0.04521	  3.17676	702.51001	 32.60	
 10.208	104.249	  3.02731	  0.81059	  1.63011	  2.23449	  0.31010	 -0.04893	  3.17937	702.53998	 32.60	
 10.192	113.678	  3.02571	  0.67584	  1.79299	  2.14782	  0.37417	 -0.05031	  3.17932	702.41998	 32.60	
 10.203	123.092	  3.02101	  0.55635	  1.93895	  2.03901	  0.45421	 -0.05099	  3.17904	702.47998	 32.60	
 10.215	132.646	  3.01738	  0.45106	  2.07271	  1.90540	  0.55729	 -0.05300	  3.17935	702.46002	 32.60	
 10.190	142.105	  3.01333	  0.36267	  2.18274	  1.75613	  0.67398	 -0.04913	  3.17905	702.41998	 32.60	
 10.194	151.526	  3.01242	  0.30800	  2.26733	  1.59114	  0.81504	 -0.04479	  3.17991	702.47998	 32.60	
 10.210	161.034	  3.01226	  0.27146	  2.32185	  1.41975	  0.96953	 -0.04587	  3.17893	702.52002	 32.60	
 10.191	170.497	  3.01004	  0.25434	  2.34561	  1.25037	  1.12723	 -0.04948	  3.17752	702.51001	 32.60	
 11.899	171.783	  2.94249	  0.06614	  2.47758	  1.17981	  1.09187	 -0.07581	  3.17873	702.47998	 32.60	
 11.890	163.610	  2.93987	  0.08313	  2.45355	  1.34580	  0.93035	 -0.07421	  3.17582	702.52002	 32.60	
 11.889	155.445	  2.94177	  0.11179	  2.41016	  1.51995	  0.77256	 -0.07202	  3.17784	702.47998	 32.60	
 11.909	147.299	  2.94423	  0.15463	  2.34306	  1.68644	  0.62911	 -0.07506	  3.17996	702.45001	 32.60	
 11.902	139.148	  2.94638	  0.22137	  2.24761	  1.84760	  0.49828	 -0.07886	  3.17920	702.40002	 32.60	
 11.894	130.867	  2.94909	  0.31060	  2.12654	  1.99671	  0.38950	 -0.08082	  3.17879	702.37000	 32.60	
 11.897	122.732	  2.95147	  0.41000	  1.99226	  2.13154	  0.28616	 -0.08395	  3.18000	702.37000	 32.60	
 11.903	114.597	  2.95194	  0.52715	  1.84156	  2.24092	  0.20822	 -0.07954	  3.17744	702.37000	 32.60	
 11.893	106.346	  2.95771	  0.66278	  1.68133	  2.33101	  0.14658	 -0.07842	  3.17742	702.42999	 32.60	
 11.892	 98.155	  2.96291	  0.81651	  1.51057	  2.39669	  0.10537	 -0.07616	  3.17728	702.53998	 32.60	
 11.900	 90.000	  2.96390	  0.97023	  1.34219	  2.43469	  0.08079	 -0.07159	  3.17541	702.25000	 32.60	
 11.892	 81.845	  2.97063	  1.13701	  1.17616	  2.44779	  0.07266	 -0.06948	  3.17758	701.69000	 32.60	
 11.893	 73.654	  2.97479	  1.31081	  1.01363	  2.43137	  0.08515	 -0.06301	  3.17705	702.37000	 32.60	
 11.903	 65.403	  2.98049	  1.48154	  0.85999	  2.38918	  0.11677	 -0.05804	  3.17811	702.48999	 32.60	
 11.897	 57.268	  2.98564	  1.65298	  0.71545	  2.31623	  0.17052	 -0.05870	  3.17685	702.48999	 32.60	
 11.894	 49.133	  2.99052	  1.81438	  0.58547	  2.22505	  0.23470	 -0.05630	  3.17952	702.21002	 32.60	
 11.902	 40.852	  2.99685	  1.96533	  0.47220	  2.10975	  0.32265	 -0.05146	  3.17960	702.59003	 32.60	
 11.909	 32.701	  2.99946	  2.09078	  0.37632	  1.97652	  0.42590	 -0.04772	  3.17651	702.47998	 32.60	
 11.889	 24.555	  3.00149	  2.20297	  0.29556	  1.82605	  0.54340	 -0.04613	  3.17568	701.71002	 32.60	
 11.890	 16.390	  3.00891	  2.29757	  0.23459	  1.66132	  0.68382	 -0.04938	  3.17967	702.57001	 32.60	
 11.899	  8.217	  3.00926	  2.35900	  0.19064	  1.49802	  0.82927	 -0.05160	  3.17639	702.47998	 32.60	
 11.900	  0.000	  3.01487	  2.39838	  0.16680	  1.32424	  0.99549	 -0.05289	  3.17918	702.51001	 32.60	
 11.899	 -8.217	  3.01285	  2.40673	  0.16195	  1.15288	  1.16032	 -0.05296	  3.17451	702.45001	 32.60	
 11.890	-16.390	  3.01555	  2.39165	  0.17598	  0.98410	  1.33563	 -0.05380	  3.17688	702.52002	 32.60	
 11.889	-24.555	  3.01579	  2.34781	  0.20410	  0.82879	  1.50811	 -0.05828	  3.17853	702.12000	 32.60	
 11.909	-32.701	  3.01287	  2.27637	  0.25416	  0.68459	  1.67248	 -0.06457	  3.17727	701.83002	 32.60	
 11.902	-40.852	  3.01133	  2.17824	  0.32312	  0.55047	  1.83636	 -0.07315	  3.17651	702.53998	 32.60	
 11.894	-49.133	  3.01062	  2.06007	  0.40945	  0.43203	  1.98642	 -0.07790	  3.17869	701.76001	 32.60	
 11.897	-57.268	  3.00638	  1.92428	  0.51364	  0.33196	  2.11512	 -0.07729	  3.17761	701.73999	 32.60	
 11.903	-65.403	  3.00184	  1.77016	  0.63234	  0.24949	  2.22678	 -0.07794	  3.17652	701.84003	 32.60	
 11.893	-73.654	  3.00209	  1.60799	  0.77046	  0.18880	  2.31555	 -0.08066	  3.17907	702.27002	 32.60	
 11.892	-81.845	  2.99792	  1.43339	  0.92004	  0.14663	  2.38060	 -0.08459	  3.17920	701.84003	 32.60	
 11.900	-90.000	  2.99002	  1.26236	  1.07486	  0.11938	  2.41616	 -0.08620	  3.17884	702.57001	 32.60	
 11.892	-98.155	  2.98252	  1.09205	  1.23887	  0.11421	  2.41974	 -0.08457	  3.17490	701.78003	 32.60	
 11.893	-106.346	  2.97960	  0.92724	  1.40961	  0.12629	  2.40330	 -0.07937	  3.17848	701.84003	 32.60	
 11.903	-114.597	  2.97738	  0.76898	  1.58151	  0.15742	  2.35797	 -0.07345	  3.18179	701.79999	 32.60	
 11.897	-122.732	  2.96576	  0.62519	  1.74161	  0.20374	  2.27962	 -0.07204	  3.17460	701.72998	 32.60	
 11.894	-130.867	  2.96361	  0.49290	  1.90071	  0.27147	  2.18337	 -0.07295	  3.17737	701.78003	 32.60	
 11.902	-139.148	  2.96057	  0.37834	  2.04958	  0.35571	  2.06147	 -0.07330	  3.17924	701.77002	 32.60	
 11.909	-147.299	  2.95446	  0.28371	  2.17389	  0.45370	  1.92487	 -0.07228	  3.17803	701.98999	 32.60	
 11.889	-155.445	  2.95041	  0.20588	  2.28060	  0.57181	  1.77339	 -0.06914	  3.17702	701.84003	 32.60	
 11.890	-163.610	  2.94827	  0.14546	  2.36907	  0.70511	  1.60630	 -0.06888	  3.17776	702.22998	 32.60	
 11.899	-171.783	  2.94306	  0.09781	  2.43364	  0.85114	  1.43653	 -0.07011	  3.17709	701.79999	 32.60	
 11.900	180.000	  2.94090	  0.07690	  2.46686	  1.01176	  1.26083	 -0.07370	  3.17716	701.85999	 32.60	
 13.600	180.000	  2.85881	 -0.10934	  2.58602	  0.92687	  1.22249	 -0.10165	  3.17723	701.84003	 32.60	
 13.608	-172.853	  2.86254	 -0.08670	  2.55394	  0.77419	  1.39107	 -0.09813	  3.17779	701.82001	 32.60	
 13.611	-165.583	  2.86312	 -0.04858	  2.49326	  0.62180	  1.56739	 -0.09575	  3.17610	701.83002	 32.60	
 13.601	-158.353	  2.86918	  0.00492	  2.41418	  0.48912	  1.73436	 -0.09593	  3.17763	701.82001	 32.60	
 13.609	-151.210	  2.87088	  0.07228	  2.31487	  0.36366	  1.89449	 -0.09899	  3.17695	701.81000	 32.60	
 13.611	-143.999	  2.87849	  0.16079	  2.19610	  0.25810	  2.04398	 -0.09788	  3.17889	701.84998	 32.60	
 13.601	-136.825	  2.88244	  0.26122	  2.06199	  0.16608	  2.17513	 -0.09961	  3.17797	701.79999	 32.60	
 13.596	-129.640	  2.88674	  0.38268	  1.90628	  0.09195	  2.28939	 -0.10018	  3.17581	701.83002	 32.60	
 13.611	-122.431	  2.89158	  0.50801	  1.74940	  0.02660	  2.38862	 -0.10271	  3.17774	701.83002	 32.60	
 13.604	-115.211	  2.89698	  0.64944	  1.58213	 -0.02365	  2.46745	 -0.10403	  3.17882	701.81000	 32.60	
 13.595	-108.042	  2.90488	  0.80139	  1.41826	 -0.04885	  2.51508	 -0.11117	  3.17883	701.75000	 32.60	
 13.607	-100.793	  2.90875	  0.96800	  1.24402	 -0.06587	  2.54203	 -0.11677	  3.17810	701.78998	 32.60	
 13.601	-93.617	  2.91102	  1.13253	  1.07721	 -0.06943	  2.54560	 -0.12008	  3.17625	701.76001	 32.60	
 13.601	-86.383	  2.91995	  1.30859	  0.91820	 -0.05261	  2.52348	 -0.12300	  3.17894	701.71002	 32.60	
 13.607	-79.207	  2.92447	  1.48222	  0.76300	 -0.02541	  2.48091	 -0.11917	  3.17993	701.69000	 32.60	
 13.595	-71.958	  2.92933	  1.65193	  0.62030	  0.02325	  2.40835	 -0.11276	  3.17862	701.87000	 32.60	
 13.604	-64.789	  2.93460	  1.81237	  0.49075	  0.08604	  2.31930	 -0.11568	  3.17982	701.78003	 32.60	
 13.611	-57.569	  2.93470	  1.96671	  0.37092	  0.16419	  2.20519	 -0.11457	  3.17742	701.77002	 32.60	
 13.596	-50.360	  2.94187	  2.11160	  0.26999	  0.26245	  2.07389	 -0.11630	  3.17962	701.83002	 32.60	
 13.601	-43.175	  2.94407	  2.23341	  0.18147	  0.37389	  1.92905	 -0.10938	  3.17846	701.81000	 32.60	
 13.611	-36.001	  2.94776	  2.34149	  0.10894	  0.49829	  1.77206	 -0.10292	  3.18293	701.84998	 32.60	
 13.609	-28.790	  2.94616	  2.42474	  0.04868	  0.63193	  1.60603	 -0.09918	  3.17929	701.90002	 32.60	
 13.601	-21.647	  2.94929	  2.48964	  0.01000	  0.78524	  1.43373	 -0.08358	  3.18222	701.79999	 32.60	
 13.611	-14.417	  2.94866	  2.52705	 -0.01553	  0.94346	  1.26135	 -0.08037	  3.18188	701.77002	 32.60	
 13.608	 -7.147	  2.94557	  2.53533	 -0.02391	  1.11478	  1.08452	 -0.07828	  3.17773	701.79999	 32.60	
 13.600	  0.000	  2.94538	  2.52531	 -0.01633	  1.28096	  0.92191	 -0.07981	  3.17932	701.87000	 32.60	
 13.608	  7.147	  2.94059	  2.48489	  0.00509	  1.45829	  0.75288	 -0.08457	  3.17531	701.82001	 32.60	
 13.611	 14.417	  2.94030	  2.42712	  0.04355	  1.62633	  0.60903	 -0.07820	  3.17884	701.85999	 32.60	
 13.601	 21.647	  2.93676	  2.34676	  0.09600	  1.79407	  0.46651	 -0.07644	  3.18102	701.83002	 32.60	
 13.609	 28.790	  2.92995	  2.24174	  0.16252	  1.94895	  0.33872	 -0.07740	  3.17923	701.71002	 32.70	
 13.611	 36.001	  2.92355	  2.11457	  0.25138	  2.09616	  0.22520	 -0.08192	  3.17655	701.84003	 32.60	
 13.601	 43.175	  2.92142	  1.97491	  0.35495	  2.22671	  0.13217	 -0.08495	  3.17809	701.76001	 32.60	
 13.596	 50.360	  2.91677	  1.82683	  0.46524	  2.33384	  0.05430	 -0.08967	  3.17970	701.87000	 32.60	
 13.611	 57.569	  2.91528	  1.65996	  0.59865	  2.43367	 -0.00904	 -0.09022	  3.18014	701.84003	 32.60	
 13.604	 64.789	  2.90813	  1.49362	  0.73979	  2.50149	 -0.05712	 -0.08727	  3.17928	701.75000	 32.70	
 13.595	 71.958	  2.90478	  1.32288	  0.89051	  2.54490	 -0.08916	 -0.09164	  3.17806	701.79999	 32.60	
 13.607	 79.207	  2.89756	  1.14693	  1.04874	  2.56809	 -0.10688	 -0.09752	  3.17725	701.83002	 32.60	
 13.601	 86.383	  2.89290	  0.97317	  1.21910	  2.56769	 -0.10554	 -0.10029	  3.17794	701.95001	 32.60	
 13.601	 93.617	  2.88807	  0.81317	  1.38722	  2.54528	 -0.09426	 -0.10390	  3.17893	701.84998	 32.60	
 13.607	100.793	  2.88454	  0.66076	  1.55480	  2.49614	 -0.06142	 -0.10482	  3.17954	701.89001	 32.60	
 13.595	108.042	  2.88072	  0.50928	  1.72853	  2.42385	 -0.01619	 -0.10636	  3.18120	701.89001	 32.60	
 13.604	115.211	  2.87538	  0.38234	  1.88630	  2.32613	  0.04728	 -0.10952	  3.17904	701.78003	 32.60	
 13.611	122.431	  2.87119	  0.26701	  2.03647	  2.21310	  0.12268	 -0.11006	  3.17803	701.78998	 32.70	
 13.596	129.640	  2.86980	  0.15956	  2.17926	  2.08276	  0.21675	 -0.10966	  3.18028	701.89001	 32.70	
 13.601	136.825	  2.86531	  0.07379	  2.29950	  1.93450	  0.32226	 -0.10761	  3.17949	701.92999	 32.70	
 13.611	143.999	  2.86162	  0.00881	  2.39972	  1.77515	  0.44355	 -0.10344	  3.17653	701.87000	 32.70	
 13.609	151.210	  2.86012	 -0.04853	  2.48595	  1.61157	  0.57597	 -0.10089	  3.17916	701.94000	 32.70	
 13.601	158.353	  2.86047	 -0.08269	  2.54579	  1.43883	  0.72626	 -0.10042	  3.17830	701.87000	 32.70	
 13.611	165.583	  2.85703	 -0.11254	  2.58463	  1.26640	  0.88291	 -0.10402	  3.17801	701.84998	 32.70	
 13.608	172.853	  2.85828	 -0.11427	  2.59726	  1.09316	  1.05038	 -0.10317	  3.17692	701.84998	 32.60	
 15.298	173.587	  2.76712	 -0.29339	  2.70599	  1.00760	  0.99970	 -0.12742	  3.17821	701.89001	 32.70	
 15.291	167.167	  2.76485	 -0.29173	  2.69803	  1.17593	  0.83574	 -0.12865	  3.17696	701.87000	 32.60	
 15.307	160.676	  2.76313	 -0.27600	  2.66587	  1.34618	  0.67636	 -0.12569	  3.17605	701.84998	 32.70	
 15.300	154.261	  2.76606	 -0.24231	  2.61258	  1.51646	  0.53245	 -0.12564	  3.17703	701.85999	 32.70	
 15.288	147.854	  2.77042	 -0.19273	  2.53879	  1.68528	  0.39426	 -0.12764	  3.17865	701.79999	 32.70	
 15.293	141.428	  2.77449	 -0.13469	  2.44642	  1.85249	  0.26509	 -0.13028	  3.18029	701.90997	 32.70	
 15.299	134.985	  2.77647	 -0.06319	  2.33909	  2.00784	  0.15118	 -0.13519	  3.17963	701.91998	 32.70	
 15.305	128.583	  2.77458	  0.02035	  2.21037	  2.15025	  0.04669	 -0.13772	  3.17382	701.97998	 32.70	
 15.309	122.142	  2.78383	  0.12209	  2.07381	  2.28228	 -0.03543	 -0.13778	  3.17824	701.88000	 32.70	
 15.304	115.711	  2.78772	  0.23430	  1.92249	  2.40247	 -0.11496	 -0.13596	  3.18053	701.92999	 32.70	
 15.297	109.291	  2.78944	  0.36350	  1.75789	  2.49773	 -0.17264	 -0.13375	  3.17765	701.84003	 32.70	
 15.293	102.897	  2.79412	  0.50123	  1.59075	  2.57753	 -0.22309	 -0.13309	  3.17880	701.88000	 32.70	
 15.293	 96.458	  2.79702	  0.64677	  1.42468	  2.63009	 -0.25124	 -0.13116	  3.17592	701.87000	 32.70	
 15.300	 90.000	  2.80167	  0.80369	  1.25526	  2.67063	 -0.27896	 -0.12804	  3.17674	701.96002	 32.70	
 15.293	 83.542	  2.80662	  0.97283	  1.08354	  2.68398	 -0.28438	 -0.12889	  3.17706	701.88000	 32.70	
 15.293	 77.103	  2.81150	  1.14865	  0.91797	  2.67620	 -0.27889	 -0.12597	  3.17782	701.90997	 32.70	
 15.297	 70.709	  2.82006	  1.31309	  0.77017	  2.64868	 -0.25628	 -0.12234	  3.17902	701.92999	 32.70	
 15.304	 64.289	  2.82246	  1.49203	  0.61450	  2.60054	 -0.23014	 -0.12011	  3.17966	701.98999	 32.70	
 15.309	 57.858	  2.81908	  1.66032	  0.47272	  2.52523	 -0.18878	 -0.12151	  3.17508	701.95001	 32.70	
 15.305	 51.417	  2.82623	  1.81764	  0.34704	  2.43892	 -0.12847	 -0.12306	  3.17427	701.92999	 32.70	
 15.299	 45.015	  2.83656	  1.97854	  0.23735	  2.32895	 -0.04663	 -0.11653	  3.17808	701.75000	 32.70	
 15.293	 38.572	  2.84396	  2.12108	  0.13528	  2.20553	  0.04511	 -0.11242	  3.17952	701.91998	 32.70	
 15.288	 32.146	  2.84477	  2.25418	  0.04224	  2.06098	  0.14466	 -0.10904	  3.17875	701.91998	 32.70	
 15.300	 25.739	  2.85364	  2.36824	 -0.02764	  1.91392	  0.26080	 -0.10609	  3.17992	701.91998	 32.70	
 15.307	 19.324	  2.85352	  2.46755	 -0.09312	  1.74824	  0.38376	 -0.10590	  3.17737	701.89001	 32.70	
 15.291	 12.833	  2.85840	  2.54654	 -0.14277	  1.58062	  0.52662	 -0.10795	  3.17968	701.94000	 32.70	
 15.298	  6.413	  2.86010	  2.59975	 -0.17250	  1.40790	  0.68000	 -0.10772	  3.17634	701.79999	 32.70	
 15.300	  0.000	  2.86093	  2.63839	 -0.19690	  1.23656	  0.83408	 -0.10564	  3.17830	701.82001	 32.70	
 15.298	 -6.413	  2.86582	  2.65387	 -0.20367	  1.06860	  0.99867	 -0.10698	  3.18043	702.34003	 32.70	
 15.291	-12.833	  2.86878	  2.64049	 -0.19582	  0.90437	  1.17262	 -0.10950	  3.17962	701.90002	 32.70	
 15.307	-19.324	  2.86536	  2.60906	 -0.17430	  0.74141	  1.34610	 -0.11093	  3.17762	701.79999	 32.70	
 15.300	-25.739	  2.86816	  2.55864	 -0.14045	  0.59290	  1.51956	 -0.11937	  3.17768	701.92999	 32.70	
 15.288	-32.146	  2.86844	  2.48355	 -0.08937	  0.45078	  1.69302	 -0.13111	  3.17896	702.01001	 32.70	
 15.293	-38.572	  2.86745	  2.39343	 -0.03172	  0.32136	  1.85565	 -0.14416	  3.18080	701.90997	 32.70	
 15.299	-45.015	  2.86279	  2.27735	  0.04454	  0.20467	  2.00873	 -0.14757	  3.17665	701.82001	 32.70	
 15.305	-51.417	  2.85759	  2.14960	  0.12850	  0.09950	  2.14940	 -0.15186	  3.17596	701.96002	 32.70	
 15.309	-57.858	  2.85382	  2.00576	  0.23024	  0.00375	  2.28065	 -0.15083	  3.17621	701.89001	 32.70	
 15.304	-64.289	  2.85209	  1.85251	  0.34662	 -0.07040	  2.39605	 -0.14948	  3.17750	701.90002	 32.70	
 15.297	-70.709	  2.84567	  1.68801	  0.47216	 -0.13267	  2.48862	 -0.15096	  3.17566	701.84003	 32.70	
 15.293	-77.103	  2.84267	  1.52042	  0.60888	 -0.18356	  2.56732	 -0.15038	  3.17871	701.90997	 32.70	
 15.293	-83.542	  2.83689	  1.34666	  0.75942	 -0.21617	  2.61908	 -0.15417	  3.17693	701.84998	 32.70	
 15.300	-90.000	  2.83453	  1.17668	  0.91348	 -0.23868	  2.65451	 -0.15447	  3.18094	701.96997	 32.70	
 15.293	-96.458	  2.82709	  1.00302	  1.07672	 -0.24491	  2.66399	 -0.15067	  3.17868	701.90002	 32.70	
 15.293	-102.897	  2.82211	  0.83410	  1.24610	 -0.24145	  2.65489	 -0.14452	  3.18006	701.85999	 32.70	
 15.297	-109.291	  2.81451	  0.67746	  1.41267	 -0.22201	  2.62069	 -0.13720	  3.17716	701.83002	 32.70	
 15.304	-115.711	  2.80931	  0.52933	  1.58019	 -0.19043	  2.56339	 -0.13468	  3.17543	701.77002	 32.70	
 15.309	-122.142	  2.80466	  0.38769	  1.74787	 -0.14698	  2.48893	 -0.12970	  3.17793	701.79999	 32.70	
 15.305	-128.583	  2.79937	  0.25954	  1.90870	 -0.09114	  2.39397	 -0.12818	  3.17867	701.89001	 32.70	
 15.299	-134.985	  2.79457	  0.14516	  2.06092	 -0.01645	  2.28058	 -0.12412	  3.17839	701.90997	 32.70	
 15.293	-141.428	  2.79037	  0.04149	  2.19988	  0.06805	  2.15340	 -0.12227	  3.17840	701.87000	 32.70	
 15.288	-147.854	  2.79004	 -0.04412	  2.32957	  0.16879	  2.00879	 -0.11951	  3.18099	701.87000	 32.70	
 15.300	-154.261	  2.78274	 -0.12126	  2.44263	  0.28190	  1.84918	 -0.11895	  3.17781	701.91998	 32.70	
 15.307	-160.676	  2.77604	 -0.18936	  2.53560	  0.40086	  1.68784	 -0.11779	  3.17801	702.01001	 32.70	
 15.291	-167.167	  2.77324	 -0.23257	  2.60931	  0.53923	  1.51810	 -0.11846	  3.17695	701.85999	 32.70	
 15.298	-173.587	  2.77216	 -0.26686	  2.66364	  0.68886	  1.34336	 -0.12271	  3.17785	701.87000	 32.70	
 15.300	180.000	  2.77211	 -0.28579	  2.69718	  0.84299	  1.17550	 -0.12459	  3.18079	701.85999	 32.70	
 17.000	180.000	  2.66706	 -0.45332	  2.79314	  0.75518	  1.12073	 -0.14385	  3.17817	701.90997	 32.70	
 16.990	-174.179	  2.67204	 -0.43538	  2.76169	  0.60101	  1.29442	 -0.13996	  3.18050	701.96997	 32.70	
 17.009	-168.383	  2.67555	 -0.40634	  2.71668	  0.45226	  1.46593	 -0.13595	  3.18192	701.94000	 32.70	
 17.000	-162.596	  2.67356	 -0.36235	  2.64188	  0.31946	  1.63459	 -0.13268	  3.17749	701.94000	 32.70	
 16.990	-156.759	  2.67730	 -0.30400	  2.55042	  0.19502	  1.79772	 -0.13348	  3.17649	701.98999	 32.70	
 16.995	-150.919	  2.68762	 -0.23857	  2.45408	  0.08359	  1.95726	 -0.13623	  3.18134	702.01001	 32.70	
 16.988	-145.161	  2.68812	 -0.16132	  2.33026	 -0.02214	  2.11056	 -0.13932	  3.17899	701.95001	 32.70	
 17.014	-139.343	  2.69147	 -0.07412	  2.19969	 -0.11106	  2.24663	 -0.14314	  3.17768	702.02002	 32.70	
 17.007	-133.546	  2.69857	  0.03460	  2.05419	 -0.18898	  2.37436	 -0.14398	  3.17817	701.96002	 32.70	
 17.001	-127.699	  2.70176	  0.14159	  1.90237	 -0.25444	  2.48419	 -0.14978	  3.17790	701.88000	 32.70	
 17.006	-121.937	  2.70678	  0.26997	  1.73922	 -0.30941	  2.57908	 -0.15368	  3.17722	701.84003	 32.70	
 17.002	-116.134	  2.71514	  0.40698	  1.57772	 -0.35034	  2.65465	 -0.15790	  3.17825	702.00000	 32.70	
 17.001	-110.310	  2.71528	  0.55496	  1.40415	 -0.38464	  2.71237	 -0.16108	  3.17604	701.91998	 32.70	
 16.988	-104.517	  2.72404	  0.70797	  1.23957	 -0.40094	  2.74760	 -0.16755	  3.17579	701.96997	 32.70	
 17.008	-98.662	  2.72907	  0.87110	  1.07074	 -0.41444	  2.76388	 -0.17885	  3.17590	701.83002	 32.70	
 16.996	-92.909	  2.72993	  1.03705	  0.90431	 -0.41410	  2.76098	 -0.18085	  3.17344	701.90002	 32.70	
 16.996	-87.091	  2.73744	  1.20476	  0.75435	 -0.39371	  2.74008	 -0.18324	  3.17433	701.85999	 32.70	
 17.012	-81.253	  2.74433	  1.38173	  0.59922	 -0.37039	  2.69833	 -0.18725	  3.17560	701.83002	 32.70	
 16.988	-75.483	  2.74684	  1.55269	  0.45580	 -0.33658	  2.63802	 -0.18328	  3.17694	701.95001	 32.70	
 17.001	-69.690	  2.75618	  1.71986	  0.32925	 -0.28214	  2.56069	 -0.18212	  3.17768	701.89001	 32.70	
 17.002	-63.866	  2.75857	  1.88349	  0.20543	 -0.21886	  2.46154	 -0.18100	  3.17679	701.85999	 32.70	
 17.006	-58.063	  2.76309	  2.03382	  0.09479	 -0.14802	  2.35343	 -0.18268	  3.17644	701.89001	 32.70	
 17.001	-52.301	  2.76671	  2.17963	  0.00027	 -0.05716	  2.22250	 -0.18270	  3.17552	701.88000	 32.70	
 17.007	-46.454	  2.76792	  2.31774	 -0.09608	  0.04016	  2.07735	 -0.18144	  3.17834	701.84998	 32.70	
 17.014	-40.657	  2.77215	  2.42740	 -0.16343	  0.14747	  1.93480	 -0.17781	  3.17737	701.87000	 32.70	
 16.988	-34.839	  2.77292	  2.52805	 -0.22709	  0.26987	  1.77026	 -0.16786	  3.17513	701.90997	 32.70	
 16.995	-29.081	  2.77921	  2.61259	 -0.27739	  0.40480	  1.60620	 -0.15534	  3.17990	701.90002	 32.70	
 16.990	-23.241	  2.77839	  2.67441	 -0.31609	  0.54747	  1.43592	 -0.14493	  3.17762	701.84003	 32.70	
 17.000	-17.404	  2.77621	  2.72191	 -0.34818	  0.69758	  1.25894	 -0.13862	  3.17642	701.94000	 32.70	
 17.009	-11.617	  2.77264	  2.74898	 -0.37020	  0.85168	  1.08369	 -0.13402	  3.17710	701.95001	 32.70	
 16.990	 -5.821	  2.77634	  2.75296	 -0.36805	  1.02140	  0.92125	 -0.13294	  3.17921	701.96002	 32.70	
 17.000	  0.000	  2.77109	  2.74089	 -0.36570	  1.18438	  0.75319	 -0.13582	  3.17841	701.98999	 32.70	
 16.990	  5.821	  2.77094	  2.70589	 -0.34418	  1.35923	  0.59703	 -0.13308	  3.17959	701.95001	 32.70	
 17.009	 11.617	  2.76258	  2.65402	 -0.31974	  1.52480	  0.44416	 -0.13426	  3.17657	701.92999	 32.70	
 17.000	 17.404	  2.76138	  2.58022	 -0.27288	  1.69603	  0.30757	 -0.13533	  3.17901	701.90997	 32.70	
 16.990	 23.241	  2.76127	  2.49000	 -0.21884	  1.86039	  0.17819	 -0.13613	  3.18064	701.94000	 32.70	
 16.995	 29.081	  2.75599	  2.37985	 -0.14880	  2.01751	  0.06377	 -0.13839	  3.17910	702.03003	 32.70	
 16.988	 34.839	  2.75008	  2.26204	 -0.07664	  2.16184	 -0.04402	 -0.14381	  3.18011	701.91998	 32.70	
 17.014	 40.657	  2.74148	  2.12278	  0.01544	  2.29814	 -0.13882	 -0.14724	  3.17712	701.90997	 32.70	
 17.007	 46.454	  2.73895	  1.97408	  0.12074	  2.42027	 -0.21597	 -0.15039	  3.17712	701.89001	 32.70	
 17.001	 52.301	  2.73656	  1.81949	  0.23265	  2.52931	 -0.28736	 -0.15119	  3.18069	701.84003	 32.70	
 17.006	 58.063	  2.72954	  1.64983	  0.36089	  2.61668	 -0.34222	 -0.15251	  3.17746	701.90997	 32.70	
 17.002	 63.866	  2.72305	  1.48650	  0.49152	  2.68536	 -0.38889	 -0.15345	  3.17519	701.84998	 32.70	
 17.001	 69.690	  2.71962	  1.31030	  0.63852	  2.73874	 -0.42395	 -0.15427	  3.17740	701.94000	 32.70	
 16.988	 75.483	  2.71362	  1.13666	  0.79513	  2.76935	 -0.43821	 -0.15502	  3.17425	701.90002	 32.70	
 17.012	 81.253	  2.70943	  0.97120	  0.95106	  2.78446	 -0.44834	 -0.15697	  3.17601	701.94000	 32.70	
 16.996	 87.091	  2.70689	  0.80510	  1.11525	  2.78080	 -0.44888	 -0.15646	  3.17753	701.82001	 32.70	
 16.996	 92.909	  2.70213	  0.64686	  1.28459	  2.75626	 -0.43461	 -0.15571	  3.17843	701.84998	 32.70	
 17.008	 98.662	  2.69801	  0.49681	  1.45144	  2.71080	 -0.40887	 -0.15567	  3.17840	701.91998	 32.70	
 16.988	104.517	  2.69575	  0.35770	  1.61904	  2.64432	 -0.36996	 -0.15396	  3.17700	701.85999	 32.70	
 17.001	110.310	  2.69217	  0.22508	  1.78302	  2.56650	 -0.32143	 -0.15580	  3.17883	701.72998	 32.70	
 17.002	116.134	  2.68566	  0.09542	  1.94431	  2.46659	 -0.26501	 -0.15586	  3.17772	701.81000	 32.70	
 17.006	121.937	  2.68291	 -0.01036	  2.09643	  2.35015	 -0.19293	 -0.15555	  3.17763	701.79999	 32.70	
 17.001	127.699	  2.67768	 -0.11272	  2.23681	  2.22306	 -0.11222	 -0.15748	  3.17852	701.90997	 32.70	
 17.007	133.546	  2.67699	 -0.19808	  2.36642	  2.07708	 -0.01500	 -0.15557	  3.17872	701.79999	 32.70	
 17.014	139.343	  2.67078	 -0.26996	  2.48220	  1.92390	  0.09559	 -0.15364	  3.17625	701.85999	 32.70	
 16.988	145.161	  2.67039	 -0.32860	  2.58072	  1.76507	  0.21222	 -0.15021	  3.17744	701.81000	 32.70	
 16.995	150.919	  2.67106	 -0.37560	  2.66299	  1.59629	  0.34158	 -0.14700	  3.18061	701.88000	 32.70	
 16.990	156.759	  2.66717	 -0.41480	  2.72454	  1.43113	  0.47562	 -0.14732	  3.17757	701.95001	 32.70	
 17.000	162.596	  2.66425	 -0.44264	  2.77059	  1.25191	  0.63237	 -0.14602	  3.17661	701.81000	 32.80	
 17.009	168.383	  2.66702	 -0.45585	  2.79842	  1.08455	  0.79281	 -0.14695	  3.17898	701.88000	 32.80	
 16.990	174.179	  2.66908	 -0.45561	  2.80280	  0.91784	  0.95560	 -0.14523	  3.17826	701.83002	 32.80	
 18.709	174.675	  2.55352	 -0.62752	  2.89289	  0.82518	  0.88963	 -0.15519	  3.17738	701.83002	 32.80	
 18.703	169.441	  2.55418	 -0.62316	  2.88819	  0.98184	  0.74050	 -0.15696	  3.17755	701.83002	 32.70	
 18.691	164.085	  2.55640	 -0.60909	  2.86637	  1.15794	  0.57628	 -0.15672	  3.17837	701.92999	 32.70	
 18.706	158.818	  2.55125	 -0.58987	  2.82420	  1.32376	  0.42277	 -0.15926	  3.17482	701.89001	 32.80	
 18.695	153.537	  2.55371	 -0.55764	  2.76885	  1.49260	  0.28648	 -0.16243	  3.17398	701.94000	 32.80	
 18.704	148.255	  2.55572	 -0.51884	  2.69804	  1.65632	  0.15691	 -0.16424	  3.17548	701.92999	 32.80	
 18.698	142.952	  2.55881	 -0.46834	  2.61142	  1.82239	  0.03720	 -0.16586	  3.17653	701.85999	 32.80	
 18.699	137.625	  2.56445	 -0.40316	  2.50430	  1.98394	 -0.08106	 -0.16799	  3.17916	701.94000	 32.80	
 18.705	132.343	  2.56399	 -0.33385	  2.38701	  2.13254	 -0.17963	 -0.16765	  3.17679	702.00000	 32.80	
 18.713	127.067	  2.56845	 -0.23996	  2.25086	  2.27185	 -0.26645	 -0.17114	  3.17449	701.92999	 32.80	
 18.700	121.794	  2.57572	 -0.14607	  2.11221	  2.40265	 -0.34485	 -0.17031	  3.17803	701.92999	 32.80	
 18.698	116.504	  2.57711	 -0.04989	  1.96586	  2.51916	 -0.41464	 -0.17010	  3.17934	701.94000	 32.80	
 18.707	111.165	  2.57940	  0.07218	  1.80456	  2.61960	 -0.47532	 -0.16917	  3.17606	701.94000	 32.80	
 18.690	105.863	  2.58655	  0.20162	  1.64170	  2.70538	 -0.52200	 -0.17130	  3.17750	701.89001	 32.80	
 18.696	100.583	  2.59024	  0.34215	  1.47267	  2.77462	 -0.56058	 -0.17233	  3.17860	702.00000	 32.80	
 18.700	 95.309	  2.59431	  0.48538	  1.30528	  2.82758	 -0.59123	 -0.17377	  3.17924	702.03998	 32.80	
 18.700	 90.000	  2.59241	  0.63210	  1.13688	  2.85792	 -0.60957	 -0.17607	  3.17526	701.94000	 32.80	
 18.700	 84.691	  2.60168	  0.79475	  0.97552	  2.87658	 -0.61616	 -0.17842	  3.17898	701.78998	 32.80	
 18.696	 79.417	  2.60802	  0.96134	  0.81721	  2.87503	 -0.61299	 -0.17882	  3.17899	701.85999	 32.80	
 18.690	 74.137	  2.61276	  1.12477	  0.66114	  2.85504	 -0.60028	 -0.17927	  3.17794	701.83002	 32.80	
 18.707	 68.835	  2.61543	  1.29323	  0.50939	  2.82302	 -0.58171	 -0.17830	  3.17886	701.90002	 32.80	
 18.698	 63.496	  2.62207	  1.47146	  0.36793	  2.76535	 -0.54627	 -0.17970	  3.17936	701.89001	 32.80	
 18.700	 58.206	  2.62329	  1.63377	  0.23463	  2.69777	 -0.50879	 -0.17904	  3.17763	701.84003	 32.80	
 18.713	 52.933	  2.63144	  1.79883	  0.11433	  2.61071	 -0.45242	 -0.17815	  3.17846	701.89001	 32.80	
 18.705	 47.657	  2.63405	  1.95965	  0.00018	  2.50508	 -0.39016	 -0.17703	  3.17683	701.88000	 32.80	
 18.699	 42.375	  2.63693	  2.10812	 -0.10170	  2.38494	 -0.31607	 -0.17535	  3.17471	701.92999	 32.80	
 18.698	 37.048	  2.64296	  2.24913	 -0.19648	  2.25689	 -0.23209	 -0.17009	  3.17838	701.79999	 32.80	
 18.704	 31.745	  2.64909	  2.38048	 -0.27413	  2.11041	 -0.13169	 -0.16648	  3.17615	701.78998	 32.80	
 18.695	 26.463	  2.65907	  2.49855	 -0.34041	  1.95942	 -0.01608	 -0.16119	  3.17928	701.84998	 32.80	
 18.706	 21.182	  2.65952	  2.59972	 -0.40428	  1.80242	  0.09533	 -0.15746	  3.18004	701.84998	 32.80	
 18.691	 15.915	  2.66219	  2.68491	 -0.45338	  1.63728	  0.22078	 -0.15530	  3.17874	701.75000	 32.80	
 18.703	 10.559	  2.66601	  2.75116	 -0.48909	  1.46782	  0.36184	 -0.15478	  3.17728	701.87000	 32.80	
 18.709	  5.325	  2.67214	  2.80282	 -0.51708	  1.30339	  0.50654	 -0.15440	  3.18122	701.90002	 32.80	
 18.700	  0.000	  2.67139	  2.83563	 -0.53428	  1.12696	  0.66481	 -0.15094	  3.17949	701.87000	 32.80	
 18.709	 -5.325	  2.67350	  2.85397	 -0.54395	  0.96033	  0.82514	 -0.15422	  3.17971	701.96997	 32.80	
 18.703	-10.559	  2.67232	  2.84710	 -0.54008	  0.80034	  0.98819	 -0.15425	  3.17612	701.91998	 32.80	
 18.691	-15.915	  2.67727	  2.82482	 -0.52402	  0.64310	  1.16178	 -0.16163	  3.17703	701.85999	 32.80	
 18.706	-21.182	  2.67525	  2.78781	 -0.50369	  0.49071	  1.32911	 -0.16763	  3.17541	701.83002	 32.80	
 18.695	-26.463	  2.67678	  2.73106	 -0.46849	  0.34960	  1.50273	 -0.17674	  3.17842	701.88000	 32.80	
 18.704	-31.745	  2.67322	  2.65371	 -0.42320	  0.21649	  1.66901	 -0.18561	  3.17569	701.88000	 32.80	
 18.698	-37.048	  2.67344	  2.56693	 -0.36750	  0.09335	  1.83324	 -0.19409	  3.17640	701.91998	 32.80	
 18.699	-42.375	  2.66982	  2.46329	 -0.30813	 -0.02364	  1.99090	 -0.20091	  3.17823	701.84998	 32.80	
 18.705	-47.657	  2.66953	  2.34241	 -0.22990	 -0.12658	  2.14372	 -0.20656	  3.17904	701.78003	 32.80	
 18.713	-52.933	  2.66827	  2.20479	 -0.13877	 -0.21649	  2.28513	 -0.20752	  3.17792	701.90997	 32.80	
 18.700	-58.206	  2.66316	  2.06096	 -0.04475	 -0.30103	  2.40922	 -0.20717	  3.17715	701.84998	 32.80	
 18.698	-63.496	  2.66123	  1.90760	  0.06287	 -0.36899	  2.52488	 -0.20644	  3.17937	701.87000	 32.80	
 18.707	-68.835	  2.65278	  1.74458	  0.17745	 -0.43244	  2.61868	 -0.20539	  3.17507	701.89001	 32.80	
 18.690	-74.137	  2.65246	  1.57743	  0.30860	 -0.48059	  2.70298	 -0.20425	  3.17873	701.85999	 32.80	
 18.696	-79.417	  2.64447	  1.41040	  0.44305	 -0.51998	  2.76687	 -0.20673	  3.17664	701.90002	 32.80	
 18.700	-84.691	  2.64173	  1.24013	  0.58850	 -0.54667	  2.81563	 -0.20501	  3.17793	701.82001	 32.80	
 18.700	-90.000	  2.63352	  1.06610	  0.73669	 -0.57367	  2.84808	 -0.20275	  3.17805	701.88000	 32.80	
 18.700	-95.309	  2.62816	  0.89973	  0.89584	 -0.57923	  2.86135	 -0.19530	  3.17828	701.79999	 32.80	
 18.696	-100.583	  2.62177	  0.73798	  1.05569	 -0.57671	  2.85496	 -0.19181	  3.17679	701.90002	 32.80	
 18.690	-105.863	  2.61802	  0.57841	  1.22581	 -0.56398	  2.83061	 -0.19122	  3.17819	701.87000	 32.80	
 18.707	-111.165	  2.60719	  0.43129	  1.38565	 -0.54934	  2.79328	 -0.18274	  3.17670	701.78003	 32.80	
 18.698	-116.504	  2.60507	  0.28799	  1.55728	 -0.51406	  2.73132	 -0.17683	  3.17849	701.84998	 32.80	
 18.700	-121.794	  2.59700	  0.15490	  1.72248	 -0.47438	  2.65791	 -0.16973	  3.17773	701.78003	 32.80	
 18.713	-127.067	  2.59512	  0.03020	  1.88542	 -0.41911	  2.56422	 -0.16753	  3.17867	701.85999	 32.80	
 18.705	-132.343	  2.58738	 -0.07801	  2.03341	 -0.35908	  2.45450	 -0.16001	  3.17420	701.83002	 32.80	
 18.699	-137.625	  2.58441	 -0.17996	  2.18256	 -0.28538	  2.33714	 -0.15244	  3.17885	701.84003	 32.80	
 18.698	-142.952	  2.57846	 -0.26990	  2.31671	 -0.20498	  2.19998	 -0.15069	  3.17688	701.94000	 32.80	
 18.704	-148.255	  2.57288	 -0.35899	  2.44548	 -0.11081	  2.05230	 -0.15002	  3.17647	701.90002	 32.80	
 18.695	-153.537	  2.57105	 -0.42239	  2.55531	 -0.00596	  1.90120	 -0.14389	  3.17805	701.84003	 32.80	
 18.706	-158.818	  2.56771	 -0.48217	  2.65262	  0.10775	  1.73858	 -0.14703	  3.17710	701.83002	 32.80	
 18.691	-164.085	  2.56372	 -0.52782	  2.73205	  0.23530	  1.57237	 -0.14580	  3.17498	701.84998	 32.80	
 18.703	-169.441	  2.56201	 -0.57013	  2.80205	  0.36883	  1.40580	 -0.14711	  3.17942	702.03998	 32.80	
 18.709	-174.675	  2.55722	 -0.59803	  2.84874	  0.51235	  1.23176	 -0.15021	  3.17707	701.91998	 32.80	
 18.700	180.000	  2.55778	 -0.61425	  2.87840	  0.66270	  1.06420	 -0.15320	  3.17843	701.89001	 32.80	
 20.400	180.000	  2.43160	 -0.79153	  2.95336	  0.55503	  0.99137	 -0.15110	  3.17585	701.90002	 32.80	
 20.401	-175.153	  2.43360	 -0.77686	  2.92558	  0.41006	  1.15566	 -0.14639	  3.17732	701.90997	 32.80	
 20.407	-170.264	  2.43411	 -0.75572	  2.88197	  0.26467	  1.32525	 -0.14535	  3.17771	701.87000	 32.80	
 20.410	-165.423	  2.43902	 -0.71829	  2.81999	  0.13070	  1.49457	 -0.14732	  3.17785	701.89001	 32.80	
 20.392	-160.496	  2.44090	 -0.66805	  2.73855	  0.00502	  1.66453	 -0.14331	  3.17437	701.85999	 32.80	
 20.401	-155.705	  2.44538	 -0.61982	  2.65146	 -0.11002	  1.82915	 -0.14322	  3.17847	701.84003	 32.80	
 20.405	-150.835	  2.45226	 -0.55452	  2.54583	 -0.21280	  1.98426	 -0.14481	  3.17811	701.84003	 32.80	
 20.397	-145.903	  2.45727	 -0.48044	  2.42462	 -0.31140	  2.13818	 -0.15238	  3.17806	701.91998	 32.80	
 20.392	-141.062	  2.46098	 -0.40068	  2.29773	 -0.39585	  2.27811	 -0.15394	  3.17920	701.90002	 32.80	
 20.396	-136.227	  2.46431	 -0.31016	  2.15692	 -0.47620	  2.41145	 -0.15619	  3.17889	701.90002	 32.80	
 20.408	-131.372	  2.46771	 -0.21338	  2.01025	 -0.54320	  2.52989	 -0.16490	  3.17995	701.96002	 32.80	
 20.410	-126.511	  2.47104	 -0.09967	  1.85280	 -0.59988	  2.63476	 -0.16630	  3.17650	701.91998	 32.80	
 20.400	-121.604	  2.47816	  0.02290	  1.69091	 -0.64921	  2.72629	 -0.17176	  3.17858	701.91998	 32.80	
 20.403	-116.741	  2.48179	  0.15290	  1.52539	 -0.68961	  2.80138	 -0.17738	  3.17772	701.92999	 32.80	
 20.413	-111.900	  2.48932	  0.29113	  1.36022	 -0.71860	  2.86341	 -0.18226	  3.17992	701.96997	 32.80	
 20.398	-107.004	  2.49384	  0.43788	  1.19270	 -0.74220	  2.90709	 -0.18654	  3.17902	701.96997	 32.80	
 20.394	-102.132	  2.49953	  0.59014	  1.02610	 -0.75792	  2.93314	 -0.19706	  3.17799	701.92999	 32.80	
 20.403	-97.332	  2.50358	  0.74893	  0.86184	 -0.76213	  2.94244	 -0.19712	  3.17575	702.01001	 32.80	
 20.392	-92.440	  2.51485	  0.91536	  0.70940	 -0.75006	  2.93588	 -0.20365	  3.17691	701.92999	 32.80	
 20.392	-87.560	  2.51605	  1.07833	  0.55389	 -0.74385	  2.91710	 -0.20676	  3.17704	702.01001	 32.80	
 20.403	-82.668	  2.52095	  1.25256	  0.40444	 -0.71938	  2.87762	 -0.20846	  3.17605	701.95001	 32.80	
 20.394	-77.868	  2.52434	  1.41807	  0.26623	 -0.69317	  2.82523	 -0.21174	  3.17553	702.07001	 32.80	
 20.398	-72.996	  2.53261	  1.58723	  0.13800	 -0.65096	  2.75870	 -0.21382	  3.17906	701.92999	 32.80	
 20.413	-68.100	  2.53497	  1.75280	  0.01312	 -0.60257	  2.67231	 -0.21404	  3.17504	702.01001	 32.80	
 20.403	-63.259	  2.54291	  1.91632	 -0.09867	 -0.53843	  2.56903	 -0.21579	  3.17685	701.97998	 32.80	
 20.400	-58.396	  2.54463	  2.06790	 -0.20095	 -0.47110	  2.45661	 -0.21342	  3.17543	701.96997	 32.80	
 20.410	-53.489	  2.54932	  2.21355	 -0.29477	 -0.39214	  2.33174	 -0.21513	  3.17554	701.94000	 32.80	
 20.408	-48.628	  2.55239	  2.35101	 -0.38243	 -0.30506	  2.19082	 -0.21403	  3.17580	701.95001	 32.80	
 20.396	-43.773	  2.55431	  2.47338	 -0.45810	 -0.21000	  2.04500	 -0.20768	  3.17533	701.96002	 32.80	
 20.392	-38.938	  2.55856	  2.58543	 -0.52260	 -0.10084	  1.88957	 -0.20402	  3.17775	701.97998	 32.80	
 20.397	-34.097	  2.55914	  2.68210	 -0.57966	  0.01553	  1.72716	 -0.20054	  3.17550	701.90002	 32.80	
 20.405	-29.165	  2.56215	  2.76520	 -0.62672	  0.14899	  1.55759	 -0.19544	  3.17674	701.97998	 32.80	
 20.401	-24.295	  2.56146	  2.83002	 -0.66693	  0.27942	  1.38810	 -0.18635	  3.17704	701.90002	 32.80	
 20.392	-19.504	  2.55903	  2.87955	 -0.69716	  0.41891	  1.21432	 -0.17822	  3.17607	701.85999	 32.80	
 20.410	-14.577	  2.55774	  2.91372	 -0.71810	  0.56836	  1.04642	 -0.17339	  3.17581	701.96002	 32.80	
 20.407	 -9.736	  2.56008	  2.93187	 -0.72842	  0.72995	  0.87512	 -0.16715	  3.17838	701.87000	 32.80	
 20.401	 -4.847	  2.55841	  2.93037	 -0.72606	  0.88738	  0.72127	 -0.16767	  3.17617	701.92999	 32.80	
 20.400	  0.000	  2.55357	  2.91334	 -0.71796	  1.05686	  0.55671	 -0.16066	  3.17556	701.87000	 32.80	
 20.401	  4.847	  2.55394	  2.88363	 -0.70204	  1.22344	  0.40936	 -0.16101	  3.17601	701.98999	 32.80	
 20.407	  9.736	  2.55226	  2.83793	 -0.67751	  1.39316	  0.26100	 -0.16281	  3.17927	701.92999	 32.80	
 20.410	 14.577	  2.54582	  2.77062	 -0.64323	  1.55893	  0.12621	 -0.16326	  3.17585	701.88000	 32.80	
 20.392	 19.504	  2.54603	  2.69061	 -0.59577	  1.72992	 -0.00292	 -0.16575	  3.17812	701.96002	 32.80	
 20.401	 24.295	  2.53424	  2.59366	 -0.55181	  1.88712	 -0.13071	 -0.17235	  3.17537	701.91998	 32.80	
 20.405	 29.165	  2.53146	  2.48820	 -0.48905	  2.04114	 -0.23872	 -0.17526	  3.17845	701.96997	 32.80	
 20.397	 34.097	  2.52850	  2.36114	 -0.41354	  2.19351	 -0.33713	 -0.17980	  3.17701	702.03003	 32.80	
 20.392	 38.938	  2.52622	  2.22500	 -0.32597	  2.33521	 -0.42318	 -0.18466	  3.17833	701.95001	 32.80	
 20.396	 43.773	  2.51789	  2.08664	 -0.24106	  2.46016	 -0.50723	 -0.18694	  3.17891	701.97998	 32.80	
 20.408	 48.628	  2.51464	  1.93305	 -0.13818	  2.57802	 -0.57754	 -0.18845	  3.17926	701.96002	 32.80	
 20.410	 53.489	  2.50984	  1.77184	 -0.02591	  2.67873	 -0.63542	 -0.18903	  3.17821	701.96997	 32.80	
 20.400	 58.396	  2.50479	  1.60861	  0.09734	  2.76385	 -0.68520	 -0.18914	  3.17654	702.03998	 32.80	
 20.403	 63.259	  2.50152	  1.44523	  0.22487	  2.83416	 -0.72683	 -0.19305	  3.18075	701.91998	 32.80	
 20.413	 68.100	  2.49871	  1.27093	  0.36594	  2.89129	 -0.75686	 -0.19139	  3.17935	702.09998	 32.80	
 20.398	 72.996	  2.49410	  1.10202	  0.51323	  2.92603	 -0.77531	 -0.18944	  3.17717	702.03998	 32.80	
 20.394	 77.868	  2.48838	  0.93502	  0.66115	  2.95066	 -0.79383	 -0.18912	  3.17674	701.97998	 32.80	
 20.403	 82.668	  2.48107	  0.77108	  0.81665	  2.95697	 -0.80027	 -0.18890	  3.17519	702.07001	 32.80	
 20.392	 87.560	  2.47933	  0.61057	  0.98327	  2.95016	 -0.79435	 -0.18572	  3.17739	702.03998	 32.80	
 20.392	 92.440	  2.47680	  0.45419	  1.14811	  2.92584	 -0.77807	 -0.18086	  3.17912	702.06000	 32.80	
 20.403	 97.332	  2.46963	  0.30639	  1.31238	  2.88461	 -0.76462	 -0.17919	  3.17609	702.06000	 32.80	
 20.394	102.132	  2.46978	  0.17107	  1.48290	  2.82751	 -0.72498	 -0.17620	  3.17742	702.01001	 32.80	
 20.398	107.004	  2.46592	  0.04308	  1.64459	  2.75705	 -0.68841	 -0.17371	  3.17821	701.95001	 32.80	
 20.413	111.900	  2.45749	 -0.08102	  1.80489	  2.66566	 -0.64223	 -0.17345	  3.17544	701.98999	 32.80	
 20.403	116.741	  2.45423	 -0.19668	  1.96635	  2.56290	 -0.58364	 -0.17220	  3.17556	702.02002	 32.80	
 20.400	121.604	  2.45305	 -0.30217	  2.11945	  2.44718	 -0.51722	 -0.16986	  3.17621	701.98999	 32.80	
 20.410	126.511	  2.44893	 -0.39486	  2.26431	  2.31571	 -0.43782	 -0.17199	  3.17627	701.92999	 32.80	
 20.408	131.372	  2.44320	 -0.48025	  2.39312	  2.18290	 -0.35998	 -0.16728	  3.17811	701.91998	 32.80	
 20.396	136.227	  2.44416	 -0.54867	  2.51859	  2.03162	 -0.25752	 -0.16863	  3.17911	701.96002	 32.80	
 20.392	141.062	  2.43831	 -0.61605	  2.62667	  1.87827	 -0.16223	 -0.16688	  3.17962	701.96997	 32.80	
 20.397	145.903	  2.43587	 -0.66561	  2.71860	  1.71194	 -0.04125	 -0.16387	  3.17495	701.90997	 32.80	
 20.405	150.835	  2.43588	 -0.70879	  2.80074	  1.54896	  0.08324	 -0.16385	  3.17841	701.92999	 32.80	
 20.401	155.705	  2.43095	 -0.74642	  2.86442	  1.37966	  0.21304	 -0.16241	  3.17577	701.90997	 32.80	
 20.392	160.496	  2.43057	 -0.77443	  2.91479	  1.21217	  0.35347	 -0.15816	  3.17686	701.89001	 32.80	
 20.410	165.423	  2.42893	 -0.79186	  2.94861	  1.04173	  0.50622	 -0.15902	  3.17641	701.94000	 32.80	
 20.407	170.264	  2.43200	 -0.79690	  2.96384	  0.87484	  0.66420	 -0.15530	  3.17634	702.07001	 32.80	
 20.401	175.153	  2.43284	 -0.80287	  2.97142	  0.71484	  0.82324	 -0.15170	  3.18090	702.03003	 32.80	
  0.141	 45.000	  3.19016	  1.34753	  1.44073	  1.39768	  1.35337	  0.06514	  3.17683	701.89001	 32.80	
  4.001	128.691	  3.16706	  1.03262	  1.67767	  1.62311	  1.05457	  0.03610	  3.17470	702.03003	 32.80	
  4.002	 76.995	  3.17487	  1.34484	  1.35416	  1.75130	  0.95646	  0.04618	  3.17690	702.08002	 32.80	
  4.002	 25.892	  3.17925	  1.64039	  1.09660	  1.56423	  1.11794	  0.05224	  3.17464	702.06000	 32.80	
  4.002	-25.892	  3.18359	  1.69182	  1.06252	  1.23229	  1.44230	  0.04958	  3.17726	701.97998	 32.80	
  4.002	-76.995	  3.18264	  1.43782	  1.27783	  1.02091	  1.69556	  0.04674	  3.17804	702.14001	 32.80	
  4.001	-128.691	  3.17730	  1.11688	  1.60340	  1.04678	  1.65567	  0.04391	  3.17764	702.03998	 32.80	
  4.000	180.000	  3.17075	  0.94827	  1.79632	  1.29444	  1.36338	  0.04028	  3.17805	702.06000	 32.90	
  8.000	180.000	  3.08581	  0.50826	  2.15713	  1.17621	  1.33107	 -0.01310	  3.17550	702.06000	 32.80	
  7.991	-152.370	  3.09451	  0.61757	  2.01429	  0.84268	  1.70819	 -0.00704	  3.17899	701.98999	 32.80	
  7.997	-124.550	  3.10224	  0.87281	  1.70350	  0.62408	  1.98999	 -0.00774	  3.17684	702.01001	 32.80	
  8.006	-96.837	  3.11291	  1.23174	  1.32601	  0.54929	  2.09823	 -0.01026	  3.17796	701.97998	 32.80	
  7.988	-69.228	  3.12474	  1.61297	  0.97670	  0.62875	  1.99672	 -0.00250	  3.17915	702.06000	 32.80	
  7.997	-41.563	  3.12711	  1.92260	  0.72001	  0.84988	  1.71790	 -0.00198	  3.17484	702.06000	 32.80	
  8.008	-13.821	  3.12934	  2.08080	  0.59947	  1.19151	  1.33925	  0.00556	  3.17746	702.12000	 32.80	
  8.008	 13.821	  3.12547	  2.02508	  0.63666	  1.57339	  0.96631	  0.00924	  3.17496	702.09998	 32.90	
  7.997	 41.563	  3.11961	  1.78526	  0.82344	  1.91132	  0.68084	  0.00831	  3.17821	702.03998	 32.90	
  7.988	 69.228	  3.10720	  1.42435	  1.13046	  2.10368	  0.52604	  0.00464	  3.17589	702.13000	 32.80	
  8.006	 96.837	  3.09806	  1.04080	  1.50809	  2.09922	  0.52785	 -0.01070	  3.17666	702.07001	 32.90	
  7.997	124.550	  3.08900	  0.72546	  1.86498	  1.89824	  0.67643	 -0.01549	  3.17574	702.12000	 32.90	
  7.991	152.370	  3.08387	  0.54037	  2.10336	  1.55969	  0.95924	 -0.01077	  3.17656	702.03003	 32.90	
 12.009	161.059	  2.93253	  0.07565	  2.45164	  1.40095	  0.87124	 -0.07609	  3.17489	702.10999	 32.90	
 12.013	142.081	  2.93589	  0.18056	  2.29091	  1.78578	  0.53995	 -0.07859	  3.17535	702.06000	 32.90	
 12.006	123.113	  2.94310	  0.39661	  1.99996	  2.12664	  0.28140	 -0.08505	  3.17498	702.15002	 32.90	
 12.007	104.200	  2.95396	  0.69516	  1.63706	  2.36024	  0.12096	 -0.07993	  3.17866	702.17999	 32.90	
 11.989	 85.301	  2.96221	  1.05981	  1.24587	  2.45253	  0.06214	 -0.07337	  3.17557	702.19000	 32.90	
 12.013	 66.294	  2.97110	  1.46624	  0.86201	  2.39991	  0.09861	 -0.06308	  3.17499	702.04999	 32.90	
 12.012	 47.388	  2.98321	  1.85278	  0.54816	  2.20523	  0.23974	 -0.05832	  3.17684	702.19000	 32.90	
 11.990	 28.440	  2.99764	  2.15866	  0.32386	  1.89947	  0.48173	 -0.04685	  3.17675	702.13000	 32.90	
 11.991	  9.464	  3.00434	  2.35910	  0.18333	  1.52135	  0.80071	 -0.05479	  3.17651	702.14001	 32.90	
 11.991	 -9.464	  3.01028	  2.41438	  0.15212	  1.11998	  1.18919	 -0.05503	  3.17659	702.20001	 32.90	
 11.990	-28.440	  3.01136	  2.32136	  0.21754	  0.75308	  1.59050	 -0.06113	  3.17817	702.12000	 32.90	
 12.012	-47.388	  3.00873	  2.09136	  0.38142	  0.44953	  1.96067	 -0.08073	  3.17914	702.09998	 32.90	
 12.013	-66.294	  2.99823	  1.75169	  0.64070	  0.23379	  2.24534	 -0.08095	  3.17658	702.16998	 32.90	
 11.989	-85.301	  2.99119	  1.35838	  0.98345	  0.12572	  2.40409	 -0.08754	  3.17809	702.20001	 32.90	
 12.007	-104.200	  2.97517	  0.96585	  1.35992	  0.10744	  2.41969	 -0.08337	  3.17666	702.12000	 32.90	
 12.006	-123.113	  2.96221	  0.61204	  1.75075	  0.19275	  2.28595	 -0.07448	  3.17680	702.19000	 32.90	
 12.013	-142.081	  2.95207	  0.33420	  2.09922	  0.37921	  2.01870	 -0.07464	  3.17560	702.04999	 32.90	
 12.009	-161.059	  2.94378	  0.14952	  2.35322	  0.65198	  1.66336	 -0.06949	  3.17770	702.12000	 32.90	
 16.000	180.000	  2.72888	 -0.35559	  2.73732	  0.80689	  1.15258	 -0.13396	  3.17842	702.03998	 32.90	
 15.990	-165.604	  2.73524	 -0.28495	  2.62731	  0.46043	  1.55334	 -0.12764	  3.17690	702.07001	 32.90	
 16.002	-151.165	  2.73953	 -0.15196	  2.41308	  0.16281	  1.94045	 -0.12659	  3.17474	702.08002	 32.90	
 16.002	-136.836	  2.75100	  0.05477	  2.11466	 -0.05566	  2.26692	 -0.13199	  3.17508	702.06000	 32.90	
 15.995	-122.439	  2.76259	  0.33247	  1.75245	 -0.21491	  2.52135	 -0.14001	  3.17719	702.00000	 32.90	
 15.993	-107.966	  2.77848	  0.66960	  1.36312	 -0.29427	  2.66780	 -0.15108	  3.17812	702.17999	 32.90	
 16.005	-93.629	  2.78890	  1.05401	  0.97133	 -0.31881	  2.70423	 -0.16490	  3.17635	702.12000	 32.90	
 15.992	-79.234	  2.80273	  1.45681	  0.61073	 -0.26385	  2.62033	 -0.16911	  3.17654	702.10999	 32.90	
 16.009	-64.774	  2.81238	  1.84992	  0.29626	 -0.14575	  2.43487	 -0.16299	  3.17650	702.10999	 32.90	
 15.997	-50.364	  2.82114	  2.19593	  0.05125	  0.05230	  2.14688	 -0.16621	  3.17616	702.20001	 32.90	
 15.997	-36.045	  2.82453	  2.46100	 -0.12583	  0.31565	  1.79325	 -0.15131	  3.17359	702.22998	 32.90	
 16.000	-21.597	  2.82813	  2.63299	 -0.23424	  0.64097	  1.39938	 -0.12466	  3.17539	702.17999	 32.90	
 16.003	 -7.169	  2.82893	  2.69407	 -0.27323	  1.01851	  0.99551	 -0.11712	  3.17829	702.15997	 32.90	
 16.003	  7.169	  2.82072	  2.63648	 -0.24373	  1.41272	  0.61759	 -0.12032	  3.17627	702.23999	 32.90	
 16.000	 21.597	  2.81283	  2.46818	 -0.14152	  1.81102	  0.28227	 -0.12031	  3.17622	702.07001	 32.90	
 15.997	 36.045	  2.80513	  2.20025	  0.03348	  2.16441	  0.02095	 -0.12491	  3.17675	702.09998	 32.90	
 15.997	 50.364	  2.79375	  1.85695	  0.27392	  2.45271	 -0.17674	 -0.13616	  3.17812	702.00000	 32.90	
 16.009	 64.774	  2.78223	  1.47315	  0.58132	  2.63951	 -0.29435	 -0.13402	  3.17711	702.06000	 32.90	
 15.992	 79.234	  2.77181	  1.06670	  0.94233	  2.72440	 -0.34987	 -0.13465	  3.17696	702.03003	 32.90	
 16.005	 93.629	  2.75851	  0.68011	  1.33052	  2.69086	 -0.33671	 -0.13875	  3.17465	702.02002	 32.90	
 15.993	107.966	  2.75329	  0.34075	  1.72294	  2.55612	 -0.25436	 -0.14242	  3.18078	702.03003	 32.90	
 15.995	122.439	  2.74489	  0.06472	  2.09098	  2.30474	 -0.09503	 -0.14593	  3.17927	702.03998	 32.90	
 16.002	136.836	  2.73517	 -0.14775	  2.39723	  1.97795	  0.12632	 -0.14376	  3.17779	702.15997	 32.90	
 16.002	151.165	  2.72818	 -0.28819	  2.61809	  1.59947	  0.41242	 -0.13473	  3.17908	702.09003	 32.90	
 15.990	165.604	  2.72706	 -0.35351	  2.73344	  1.19178	  0.76765	 -0.13493	  3.17810	702.19000	 32.90	
 20.003	168.362	  2.45834	 -0.75509	  2.94280	  0.95863	  0.62305	 -0.15517	  3.17561	702.09003	 32.90	
 20.008	156.764	  2.46199	 -0.71080	  2.86346	  1.35262	  0.27702	 -0.16156	  3.17810	702.13000	 32.90	
 20.000	145.147	  2.46793	 -0.61485	  2.69120	  1.74828	 -0.02597	 -0.16725	  3.17775	702.19000	 32.90	
 19.995	133.545	  2.47358	 -0.47137	  2.44555	  2.11203	 -0.27198	 -0.17176	  3.17787	702.23999	 32.90	
 20.009	121.926	  2.47945	 -0.27396	  2.12749	  2.43163	 -0.47681	 -0.17620	  3.17676	702.19000	 32.90	
 20.005	110.327	  2.49039	 -0.00953	  1.76258	  2.68723	 -0.61834	 -0.17259	  3.17897	702.15002	 32.90	
 19.989	 98.733	  2.49730	  0.29401	  1.37676	  2.85122	 -0.70821	 -0.17842	  3.17572	702.06000	 32.90	
 19.999	 87.075	  2.51307	  0.65504	  0.98631	  2.93000	 -0.74437	 -0.18354	  3.17742	702.09998	 32.90	
 19.992	 75.457	  2.52067	  1.03096	  0.61653	  2.92372	 -0.74161	 -0.18664	  3.17734	702.09003	 32.90	
 20.009	 63.844	  2.53256	  1.43147	  0.27641	  2.82985	 -0.68823	 -0.19034	  3.17999	702.14001	 32.90	
 19.989	 52.269	  2.54034	  1.81883	 -0.01612	  2.63468	 -0.57447	 -0.18731	  3.17542	702.09998	 32.90	
 19.999	 40.602	  2.55161	  2.17543	 -0.25844	  2.36652	 -0.41007	 -0.18493	  3.17546	702.09998	 32.90	
 20.004	 29.051	  2.56012	  2.48097	 -0.44827	  2.03663	 -0.19571	 -0.17666	  3.17754	702.10999	 32.90	
 20.005	 17.433	  2.57055	  2.71166	 -0.57595	  1.66505	  0.07675	 -0.16342	  3.17655	702.19000	 32.90	
 20.006	  5.780	  2.58186	  2.85711	 -0.65298	  1.27358	  0.40625	 -0.15924	  3.17741	702.10999	 32.90	
 20.006	 -5.780	  2.58510	  2.91438	 -0.68398	  0.88434	  0.76636	 -0.16279	  3.17663	702.21997	 32.90	
 20.005	-17.433	  2.58771	  2.87825	 -0.66187	  0.50883	  1.16743	 -0.17486	  3.17819	702.21002	 32.90	
 20.004	-29.051	  2.58628	  2.75310	 -0.58981	  0.17776	  1.56217	 -0.19440	  3.17695	702.09998	 32.90	
 19.999	-40.602	  2.58768	  2.53952	 -0.45625	 -0.09429	  1.94387	 -0.20626	  3.17643	702.12000	 32.90	
 19.989	-52.269	  2.57672	  2.24364	 -0.27691	 -0.32983	  2.28780	 -0.21246	  3.17286	702.12000	 32.90	
 20.009	-63.844	  2.57015	  1.89740	 -0.04911	 -0.50356	  2.57200	 -0.21452	  3.17669	702.15997	 32.90	
 19.992	-75.457	  2.56067	  1.51034	  0.23836	 -0.62505	  2.77957	 -0.21309	  3.17918	702.02002	 32.90	
 19.999	-87.075	  2.55047	  1.11814	  0.56734	 -0.69359	  2.89726	 -0.20741	  3.18059	702.13000	 32.90	
 19.989	-98.733	  2.53241	  0.72432	  0.93298	 -0.71398	  2.92115	 -0.20037	  3.17494	702.03003	 32.90	
 20.005	-110.327	  2.51927	  0.36638	  1.31927	 -0.68158	  2.85967	 -0.18565	  3.17521	702.08002	 32.90	
 20.009	-121.926	  2.50541	  0.04513	  1.70797	 -0.60237	  2.70702	 -0.17376	  3.17665	702.07001	 32.90	
 19.995	-133.545	  2.49454	 -0.21630	  2.07454	 -0.46912	  2.46554	 -0.15980	  3.17454	702.13000	 32.90	
 20.000	-145.147	  2.48237	 -0.43072	  2.39558	 -0.28689	  2.15687	 -0.15152	  3.17352	702.19000	 32.90	
 20.008	-156.764	  2.47470	 -0.58987	  2.65873	 -0.04756	  1.79387	 -0.14440	  3.17554	702.15997	 32.90	
 20.003	-168.362	  2.46795	 -0.69763	  2.84433	  0.24634	  1.40654	 -0.15105	  3.17794	702.06000	 32.90	
 20.000	180.000	  2.45914	 -0.75032	  2.93460	  0.58504	  1.00681	 -0.15435	  3.17318	702.26001	 32.90	
