FileType=PCF
NHL=14
Date=08/24/17	11:04:12
Facility=APL
Serial=16328-2
Customer=NASA
NP=6
Mach=0.050000
Calibration=1:1
CalPts=490
TstPts=95
PortNumbering=AP Standard
Units=Torr C m/s kg/m^3 deg mm 
Theta[deg]	Phi[deg]	P1[Torr]	P2[Torr]	P3[Torr]	P4[Torr]	P5[Torr]	P6[Torr]	Pt[Torr]	Ps[Abs,Torr]	Ts[C]	
  0.000	  0.000	  1.25305	  0.65333	  0.65244	  0.66339	  0.66335	  0.00352	  1.24565	704.08899	 23.70	
  1.691	128.401	  1.25311	  0.62451	  0.67905	  0.69727	  0.62180	  0.00411	  1.24567	704.13397	 23.70	
  1.692	 77.194	  1.25767	  0.66677	  0.63621	  0.70792	  0.61804	  0.00467	  1.25071	704.12097	 23.70	
  1.699	 26.182	  1.25751	  0.70709	  0.60015	  0.67636	  0.64224	  0.00450	  1.25070	704.16803	 23.70	
  1.699	-26.182	  1.25803	  0.70756	  0.59890	  0.62658	  0.69501	  0.00418	  1.25121	704.21899	 23.70	
  1.692	-77.194	  1.24881	  0.66216	  0.63080	  0.59582	  0.72229	  0.00431	  1.24268	704.24799	 23.70	
  1.691	-128.401	  1.25631	  0.61958	  0.68405	  0.60573	  0.71639	  0.00416	  1.24927	704.07599	 23.70	
  1.700	180.000	  1.25929	  0.60033	  0.70949	  0.65414	  0.66846	  0.00531	  1.25184	704.10901	 23.60	
  3.400	180.000	  1.25171	  0.52914	  0.76998	  0.64428	  0.66063	  0.00167	  1.24604	704.16901	 23.60	
  3.388	-152.325	  1.25100	  0.54047	  0.75485	  0.58781	  0.71964	  0.00204	  1.24578	704.21100	 23.60	
  3.397	-124.529	  1.25502	  0.57894	  0.71474	  0.54750	  0.76957	  0.00144	  1.25019	704.20001	 23.60	
  3.399	-96.763	  1.25775	  0.63517	  0.65834	  0.53133	  0.79334	  0.00111	  1.25289	704.03699	 23.60	
  3.394	-69.283	  1.24964	  0.68914	  0.59754	  0.53431	  0.78015	  0.00036	  1.24367	704.12299	 23.60	
  3.400	-41.398	  1.24995	  0.74079	  0.55098	  0.56443	  0.74552	  0.00107	  1.24540	704.18799	 23.60	
  3.401	-14.021	  1.24886	  0.76988	  0.52632	  0.61259	  0.69137	  0.00096	  1.24463	704.04199	 23.60	
  3.401	 14.021	  1.25511	  0.77540	  0.52732	  0.67442	  0.63458	  0.00090	  1.24965	704.09802	 23.60	
  3.400	 41.398	  1.25173	  0.74449	  0.55107	  0.72642	  0.58387	  0.00195	  1.24599	704.09003	 23.60	
  3.394	 69.283	  1.25711	  0.69610	  0.59883	  0.76475	  0.55744	  0.00230	  1.25162	704.14398	 23.60	
  3.399	 96.763	  1.25454	  0.63744	  0.65339	  0.77186	  0.55090	  0.00186	  1.24881	704.09302	 23.70	
  3.397	124.529	  1.25703	  0.58564	  0.71210	  0.75175	  0.56817	  0.00103	  1.25123	704.11603	 23.60	
  3.388	152.325	  1.25529	  0.54699	  0.75469	  0.70554	  0.60680	  0.00186	  1.24941	704.12097	 23.70	
  5.099	161.165	  1.25044	  0.47095	  0.82191	  0.70226	  0.59489	 -0.00377	  1.25011	704.12097	 23.70	
  5.109	142.013	  1.25095	  0.50008	  0.78851	  0.75946	  0.54374	 -0.00256	  1.25008	703.97803	 23.60	
  5.095	123.033	  1.24986	  0.54406	  0.73709	  0.80325	  0.50457	 -0.00343	  1.25021	704.14801	 23.60	
  5.105	104.191	  1.24781	  0.59752	  0.67690	  0.82877	  0.48295	 -0.00321	  1.24828	704.18500	 23.60	
  5.093	 85.207	  1.24749	  0.66084	  0.61344	  0.83211	  0.47957	 -0.00253	  1.24916	704.38300	 23.60	
  5.104	 66.290	  1.24799	  0.72191	  0.55591	  0.81650	  0.49245	 -0.00405	  1.24910	704.29602	 23.60	
  5.094	 47.331	  1.24207	  0.77292	  0.50470	  0.77517	  0.52096	 -0.00406	  1.24404	704.20001	 23.60	
  5.089	 28.397	  1.24794	  0.81665	  0.47132	  0.72705	  0.56851	 -0.00467	  1.24923	704.22998	 23.60	
  5.096	  9.576	  1.24662	  0.83629	  0.45446	  0.66699	  0.62436	 -0.00359	  1.24762	704.21899	 23.60	
  5.096	 -9.576	  1.24775	  0.83539	  0.45575	  0.60364	  0.68881	 -0.00433	  1.24936	704.21899	 23.60	
  5.089	-28.397	  1.24321	  0.80969	  0.47325	  0.54598	  0.74605	 -0.00447	  1.24496	704.26501	 23.60	
  5.094	-47.331	  1.24940	  0.77202	  0.50904	  0.50162	  0.80099	 -0.00512	  1.25102	704.25598	 23.60	
  5.104	-66.290	  1.25307	  0.71776	  0.56235	  0.47226	  0.84067	 -0.00547	  1.25406	704.25000	 23.60	
  5.093	-85.207	  1.25092	  0.65406	  0.62090	  0.45908	  0.85442	 -0.00537	  1.25213	704.19598	 23.60	
  5.105	-104.191	  1.24945	  0.59139	  0.68350	  0.46220	  0.84842	 -0.00412	  1.24938	704.20801	 23.60	
  5.095	-123.033	  1.24743	  0.53629	  0.74080	  0.48473	  0.81962	 -0.00325	  1.24838	704.19397	 23.60	
  5.109	-142.013	  1.25328	  0.49332	  0.79391	  0.52503	  0.77788	 -0.00434	  1.25339	704.28699	 23.60	
  5.099	-161.165	  1.24899	  0.46668	  0.82265	  0.57721	  0.71788	 -0.00402	  1.24928	704.25500	 23.60	
  5.100	180.000	  1.24683	  0.45828	  0.83181	  0.63767	  0.65348	 -0.00302	  1.24647	704.26202	 23.60	
  6.800	180.000	  1.23071	  0.38371	  0.88556	  0.62369	  0.63948	 -0.00928	  1.24134	704.19897	 23.60	
  6.796	-166.229	  1.23218	  0.38923	  0.87987	  0.56479	  0.70112	 -0.01003	  1.24280	704.24799	 23.60	
  6.808	-152.311	  1.23216	  0.40646	  0.85710	  0.50798	  0.76142	 -0.01059	  1.24313	704.27197	 23.60	
  6.795	-138.383	  1.23323	  0.43789	  0.82044	  0.45945	  0.81594	 -0.00935	  1.24515	704.22998	 23.60	
  6.792	-124.591	  1.23501	  0.48269	  0.77147	  0.42269	  0.86074	 -0.00985	  1.24519	704.21399	 23.60	
  6.787	-110.754	  1.23748	  0.53450	  0.71665	  0.39809	  0.89374	 -0.01276	  1.24874	704.22198	 23.60	
  6.800	-96.985	  1.23859	  0.59398	  0.65658	  0.38510	  0.91095	 -0.01291	  1.25059	704.32703	 23.60	
  6.800	-83.015	  1.22954	  0.65293	  0.58912	  0.38277	  0.90446	 -0.01253	  1.24102	704.24402	 23.60	
  6.787	-69.246	  1.23477	  0.71546	  0.53398	  0.39705	  0.89166	 -0.01360	  1.24656	704.18298	 23.60	
  6.792	-55.409	  1.23032	  0.77110	  0.47945	  0.42014	  0.85968	 -0.01364	  1.24336	704.19098	 23.60	
  6.795	-41.617	  1.23013	  0.82141	  0.43756	  0.45801	  0.81689	 -0.01221	  1.24261	704.01898	 23.60	
  6.808	-27.689	  1.23686	  0.86509	  0.40602	  0.50893	  0.76651	 -0.01264	  1.24932	704.26202	 23.60	
  6.796	-13.771	  1.23518	  0.88757	  0.38539	  0.56351	  0.70632	 -0.01255	  1.24757	704.16901	 23.60	
  6.800	  0.000	  1.22717	  0.89123	  0.37646	  0.61900	  0.64087	 -0.01157	  1.23936	704.25000	 23.60	
  6.796	 13.771	  1.23381	  0.88847	  0.38488	  0.68450	  0.58411	 -0.01194	  1.24577	704.19098	 23.60	
  6.808	 27.689	  1.22833	  0.86231	  0.40237	  0.74080	  0.52679	 -0.01118	  1.23986	704.05402	 23.60	
  6.795	 41.617	  1.22716	  0.82606	  0.43156	  0.79127	  0.48060	 -0.00979	  1.23976	704.34802	 23.60	
  6.792	 55.409	  1.23199	  0.78049	  0.47514	  0.83931	  0.44465	 -0.00966	  1.24327	704.14899	 23.60	
  6.787	 69.246	  1.23113	  0.72229	  0.52597	  0.87012	  0.41876	 -0.00947	  1.24306	704.39899	 23.60	
  6.800	 83.015	  1.23060	  0.66135	  0.58366	  0.88554	  0.40643	 -0.00929	  1.24253	704.24402	 23.60	
  6.800	 96.985	  1.23075	  0.60088	  0.64536	  0.88677	  0.40643	 -0.00819	  1.24249	704.28198	 23.60	
  6.787	110.754	  1.23442	  0.54419	  0.70853	  0.87413	  0.42013	 -0.01027	  1.24496	704.27502	 23.60	
  6.792	124.591	  1.23796	  0.49313	  0.76823	  0.84650	  0.44599	 -0.00896	  1.24851	704.32001	 23.60	
  6.795	138.383	  1.23889	  0.45000	  0.81854	  0.80288	  0.48372	 -0.00852	  1.24862	704.11200	 23.60	
  6.808	152.311	  1.23368	  0.41452	  0.85458	  0.74767	  0.52721	 -0.00944	  1.24454	704.22699	 23.60	
  6.796	166.229	  1.24241	  0.39612	  0.88472	  0.69299	  0.58628	 -0.00975	  1.25258	704.22699	 23.60	
  8.491	168.704	  1.22168	  0.31872	  0.93520	  0.67735	  0.56617	 -0.01772	  1.24766	704.18500	 23.60	
  8.502	157.493	  1.21797	  0.33626	  0.91251	  0.73626	  0.50859	 -0.01649	  1.24266	704.25598	 23.60	
  8.494	146.194	  1.21244	  0.36121	  0.87570	  0.78943	  0.45539	 -0.01591	  1.23748	704.34003	 23.60	
  8.495	135.039	  1.21484	  0.39959	  0.83440	  0.84351	  0.41185	 -0.01603	  1.23969	704.22699	 23.60	
  8.487	123.723	  1.21135	  0.44411	  0.77811	  0.88268	  0.37516	 -0.01679	  1.23658	704.31799	 23.60	
  8.492	112.575	  1.21710	  0.49883	  0.72426	  0.91775	  0.35241	 -0.01624	  1.24238	704.27502	 23.60	
  8.510	101.220	  1.21784	  0.55576	  0.66288	  0.93906	  0.33583	 -0.01730	  1.24462	704.21899	 23.60	
  8.500	 90.000	  1.22178	  0.62063	  0.60134	  0.94812	  0.33154	 -0.01578	  1.24821	704.20801	 23.60	
  8.510	 78.780	  1.22127	  0.68387	  0.53859	  0.93966	  0.33779	 -0.01654	  1.24836	704.14398	 23.60	
  8.492	 67.425	  1.21706	  0.74384	  0.48062	  0.91667	  0.35384	 -0.01580	  1.24464	704.17700	 23.60	
  8.487	 56.277	  1.21185	  0.79703	  0.42740	  0.88166	  0.37636	 -0.01644	  1.23990	704.24799	 23.60	
  8.495	 44.961	  1.21115	  0.84935	  0.38208	  0.83845	  0.41140	 -0.01642	  1.23933	704.11499	 23.60	
  8.494	 33.806	  1.21139	  0.89024	  0.34779	  0.78684	  0.45658	 -0.01873	  1.24073	704.14398	 23.60	
  8.502	 22.507	  1.20950	  0.92004	  0.32159	  0.72805	  0.50714	 -0.01955	  1.23794	704.24701	 23.60	
  8.491	 11.296	  1.21371	  0.94106	  0.30816	  0.66932	  0.56618	 -0.01961	  1.24244	704.23401	 23.60	
  8.500	  0.000	  1.21333	  0.94694	  0.30358	  0.60510	  0.62889	 -0.02084	  1.24170	704.16901	 23.60	
  8.491	-11.296	  1.21014	  0.93650	  0.30856	  0.54204	  0.68983	 -0.02214	  1.23851	704.19098	 23.60	
  8.502	-22.507	  1.21159	  0.91787	  0.32436	  0.48510	  0.75193	 -0.02131	  1.24024	704.25000	 23.60	
  8.494	-33.806	  1.21274	  0.88572	  0.35232	  0.43387	  0.81090	 -0.01990	  1.24092	704.38000	 23.60	
  8.495	-44.961	  1.21373	  0.84252	  0.38917	  0.39033	  0.86186	 -0.02059	  1.24107	704.23297	 23.60	
  8.487	-56.277	  1.21541	  0.79011	  0.43630	  0.35696	  0.90430	 -0.02046	  1.24330	704.23901	 23.60	
  8.492	-67.425	  1.21131	  0.72969	  0.48627	  0.32959	  0.93241	 -0.02043	  1.23810	704.25800	 23.60	
  8.510	-78.780	  1.21199	  0.66767	  0.54410	  0.31249	  0.95285	 -0.01988	  1.23925	704.13000	 23.60	
  8.500	-90.000	  1.20911	  0.60296	  0.60530	  0.30740	  0.95622	 -0.01895	  1.23630	704.05103	 23.60	
  8.510	-101.220	  1.20649	  0.54120	  0.66521	  0.31155	  0.94784	 -0.01938	  1.23291	704.16498	 23.60	
  8.492	-112.575	  1.21044	  0.48388	  0.73025	  0.33016	  0.92983	 -0.01821	  1.23697	704.03003	 23.60	
  8.487	-123.723	  1.21192	  0.43296	  0.78852	  0.35712	  0.89976	 -0.01619	  1.23795	704.05902	 23.60	
  8.495	-135.039	  1.21107	  0.38851	  0.83997	  0.39237	  0.85751	 -0.01595	  1.23791	704.09198	 23.60	
  8.494	-146.194	  1.21134	  0.35484	  0.88100	  0.43764	  0.80664	 -0.01478	  1.23651	704.10699	 23.60	
  8.502	-157.493	  1.21592	  0.32988	  0.91599	  0.49266	  0.75109	 -0.01568	  1.24139	704.21698	 23.60	
  8.491	-168.704	  1.21217	  0.31311	  0.93210	  0.54811	  0.68683	 -0.01696	  1.23684	704.09302	 23.60	
  8.500	180.000	  1.21265	  0.31145	  0.93711	  0.60915	  0.62650	 -0.01533	  1.23840	704.28998	 23.60	
 10.200	180.000	  1.19001	  0.23379	  0.98610	  0.59183	  0.60414	 -0.02538	  1.23521	704.17902	 23.60	
 10.191	-170.497	  1.18858	  0.23734	  0.97933	  0.52691	  0.66838	 -0.02398	  1.23368	704.16498	 23.60	
 10.210	-161.034	  1.19080	  0.25046	  0.96524	  0.46951	  0.73251	 -0.02462	  1.23680	704.12598	 23.60	
 10.194	-151.526	  1.19415	  0.27224	  0.94065	  0.41490	  0.79472	 -0.02459	  1.23984	704.21899	 23.60	
 10.190	-142.105	  1.19324	  0.30115	  0.90438	  0.36606	  0.84986	 -0.02448	  1.24068	704.23700	 23.60	
 10.215	-132.646	  1.19226	  0.33865	  0.85819	  0.32405	  0.89857	 -0.02481	  1.23894	704.17499	 23.60	
 10.203	-123.092	  1.18939	  0.38323	  0.80315	  0.28858	  0.93823	 -0.02613	  1.23595	704.21100	 23.60	
 10.192	-113.678	  1.18976	  0.43456	  0.74520	  0.26177	  0.97065	 -0.02745	  1.23639	703.99103	 23.60	
 10.208	-104.249	  1.18998	  0.49175	  0.68381	  0.24321	  0.99393	 -0.02940	  1.23698	704.11603	 23.60	
 10.210	-94.801	  1.19213	  0.55250	  0.62241	  0.23317	  1.00814	 -0.03068	  1.23944	704.16101	 23.70	
 10.210	-85.199	  1.19178	  0.61841	  0.55629	  0.23262	  1.00826	 -0.03006	  1.24013	704.21399	 23.70	
 10.208	-75.751	  1.19109	  0.68097	  0.49581	  0.24219	  0.99669	 -0.02941	  1.23903	704.29303	 23.70	
 10.192	-66.322	  1.19328	  0.74638	  0.43878	  0.26114	  0.97637	 -0.03155	  1.24107	704.21100	 23.70	
 10.203	-56.908	  1.19081	  0.80286	  0.38586	  0.28660	  0.94228	 -0.03120	  1.23883	704.13702	 23.70	
 10.215	-47.354	  1.18842	  0.85625	  0.33833	  0.32021	  0.89894	 -0.02966	  1.23600	704.13000	 23.70	
 10.190	-37.895	  1.19177	  0.90493	  0.30129	  0.36302	  0.85255	 -0.02980	  1.23994	704.20599	 23.70	
 10.194	-28.474	  1.18768	  0.93941	  0.26975	  0.40977	  0.79405	 -0.02872	  1.23593	704.17999	 23.70	
 10.210	-18.966	  1.19017	  0.97055	  0.24779	  0.46634	  0.73568	 -0.02990	  1.23910	704.15198	 23.70	
 10.191	 -9.503	  1.18691	  0.98512	  0.23360	  0.52373	  0.67147	 -0.03018	  1.23464	704.10101	 23.70	
 10.200	  0.000	  1.18991	  0.99476	  0.22812	  0.58618	  0.61072	 -0.02884	  1.23806	704.14398	 23.70	
 10.191	  9.503	  1.18985	  0.98990	  0.23240	  0.65042	  0.54808	 -0.02838	  1.23818	704.10101	 23.70	
 10.210	 18.966	  1.19231	  0.97679	  0.24338	  0.71492	  0.48818	 -0.03086	  1.24186	704.09900	 23.70	
 10.194	 28.474	  1.19108	  0.94878	  0.26466	  0.77277	  0.43483	 -0.02878	  1.23959	704.11499	 23.70	
 10.190	 37.895	  1.19450	  0.91485	  0.29549	  0.83255	  0.38638	 -0.02691	  1.24333	704.20599	 23.70	
 10.215	 47.354	  1.19322	  0.86879	  0.33245	  0.88270	  0.34334	 -0.02515	  1.24125	704.03101	 23.70	
 10.203	 56.908	  1.18841	  0.81169	  0.37680	  0.92026	  0.30848	 -0.02491	  1.23642	704.23102	 23.70	
 10.192	 66.322	  1.19239	  0.75731	  0.42905	  0.95415	  0.28507	 -0.02467	  1.24060	704.20203	 23.60	
 10.208	 75.751	  1.19008	  0.69392	  0.48498	  0.97663	  0.26598	 -0.02584	  1.23730	704.06500	 23.60	
 10.210	 85.199	  1.19037	  0.63127	  0.54533	  0.98841	  0.25795	 -0.02411	  1.23722	704.07599	 23.60	
 10.210	 94.801	  1.18975	  0.56660	  0.60867	  0.98791	  0.25714	 -0.02447	  1.23563	704.14899	 23.60	
 10.208	104.249	  1.19504	  0.50730	  0.67430	  0.98117	  0.26589	 -0.02472	  1.24130	704.07800	 23.60	
 10.192	113.678	  1.19120	  0.44910	  0.73398	  0.95546	  0.28385	 -0.02606	  1.23588	704.14600	 23.60	
 10.203	123.092	  1.19072	  0.39519	  0.79394	  0.92483	  0.30746	 -0.02732	  1.23714	704.22498	 23.60	
 10.215	132.646	  1.19544	  0.34813	  0.85253	  0.88757	  0.34092	 -0.02708	  1.24133	704.07599	 23.60	
 10.190	142.105	  1.19702	  0.31009	  0.89899	  0.83815	  0.38395	 -0.02511	  1.24186	704.13397	 23.60	
 10.194	151.526	  1.19944	  0.27946	  0.93877	  0.78412	  0.43347	 -0.02523	  1.24471	704.09302	 23.70	
 10.210	161.034	  1.19477	  0.25316	  0.96622	  0.72060	  0.48592	 -0.02761	  1.24133	704.19397	 23.70	
 10.191	170.497	  1.19977	  0.23945	  0.98714	  0.66021	  0.54659	 -0.02721	  1.24534	704.09601	 23.60	
 11.899	171.783	  1.17367	  0.16292	  1.03369	  0.63924	  0.52471	 -0.03651	  1.24462	704.26501	 23.60	
 11.890	163.610	  1.17515	  0.17771	  1.01725	  0.70405	  0.46554	 -0.03551	  1.24475	704.24799	 23.60	
 11.889	155.445	  1.17029	  0.19524	  0.98962	  0.76275	  0.40789	 -0.03502	  1.24084	704.21399	 23.60	
 11.909	147.299	  1.17278	  0.22317	  0.95683	  0.82335	  0.35666	 -0.03410	  1.24240	704.22498	 23.60	
 11.902	139.148	  1.17799	  0.25889	  0.91775	  0.88109	  0.31195	 -0.03498	  1.24750	704.13800	 23.70	
 11.894	130.867	  1.17122	  0.30065	  0.86298	  0.92389	  0.27316	 -0.03564	  1.24075	704.14099	 23.60	
 11.897	122.732	  1.17824	  0.34997	  0.81293	  0.97065	  0.24156	 -0.03711	  1.24819	704.19397	 23.60	
 11.903	114.597	  1.17371	  0.39991	  0.75022	  1.00001	  0.21424	 -0.03715	  1.24432	704.10602	 23.70	
 11.893	106.346	  1.17280	  0.45744	  0.68659	  1.02363	  0.19564	 -0.03742	  1.24490	704.16498	 23.60	
 11.892	 98.155	  1.17268	  0.51965	  0.62230	  1.03792	  0.18466	 -0.03588	  1.24447	704.12903	 23.60	
 11.900	 90.000	  1.17223	  0.58203	  0.55677	  1.04235	  0.18023	 -0.03644	  1.24427	704.13397	 23.70	
 11.892	 81.845	  1.17201	  0.64618	  0.49450	  1.03624	  0.18518	 -0.03633	  1.24395	704.22498	 23.70	
 11.893	 73.654	  1.17151	  0.71068	  0.43394	  1.01986	  0.19704	 -0.03549	  1.24437	704.08398	 23.70	
 11.903	 65.403	  1.17074	  0.77194	  0.37845	  0.99550	  0.21577	 -0.03656	  1.24504	704.13800	 23.70	
 11.897	 57.268	  1.17479	  0.83382	  0.32804	  0.96578	  0.24266	 -0.03541	  1.24933	704.15997	 23.60	
 11.894	 49.133	  1.17253	  0.88637	  0.28173	  0.92205	  0.27611	 -0.03464	  1.24669	704.25000	 23.70	
 11.902	 40.852	  1.16482	  0.92925	  0.24073	  0.86794	  0.31375	 -0.03527	  1.23965	704.17999	 23.60	
 11.909	 32.701	  1.16864	  0.97264	  0.20840	  0.81581	  0.35997	 -0.03747	  1.24359	704.20599	 23.60	
 11.889	 24.555	  1.16672	  1.00098	  0.18442	  0.75457	  0.41152	 -0.03805	  1.23967	704.24402	 23.60	
 11.890	 16.390	  1.16794	  1.02567	  0.16723	  0.69461	  0.46779	 -0.03973	  1.24208	704.14001	 23.60	
 11.899	  8.217	  1.17772	  1.04819	  0.15701	  0.63626	  0.53122	 -0.03919	  1.25274	704.13800	 23.70	
 11.900	  0.000	  1.17684	  1.05018	  0.15416	  0.57042	  0.59483	 -0.04021	  1.25118	704.17499	 23.70	
 11.899	 -8.217	  1.17479	  1.04255	  0.15856	  0.50668	  0.65835	 -0.03989	  1.25057	704.13000	 23.70	
 11.890	-16.390	  1.17839	  1.02883	  0.17145	  0.44755	  0.72314	 -0.04035	  1.25196	704.15399	 23.70	
 11.889	-24.555	  1.17507	  1.00128	  0.19053	  0.38899	  0.78484	 -0.03800	  1.24900	704.15503	 23.70	
 11.909	-32.701	  1.17544	  0.96810	  0.21776	  0.33817	  0.84384	 -0.03839	  1.24891	704.08899	 23.70	
 11.902	-40.852	  1.17421	  0.92458	  0.25161	  0.29134	  0.89652	 -0.03849	  1.24716	704.16901	 23.70	
 11.894	-49.133	  1.17394	  0.87434	  0.29254	  0.25209	  0.94473	 -0.03952	  1.24753	704.10101	 23.70	
 11.897	-57.268	  1.17062	  0.81721	  0.33751	  0.21819	  0.98322	 -0.04021	  1.24386	704.14099	 23.70	
 11.903	-65.403	  1.17996	  0.76214	  0.39296	  0.19192	  1.02420	 -0.04076	  1.25428	703.97498	 23.70	
 11.893	-73.654	  1.17986	  0.69848	  0.45093	  0.17434	  1.04646	 -0.04083	  1.25420	704.06702	 23.70	
 11.892	-81.845	  1.17738	  0.63203	  0.51002	  0.16201	  1.05898	 -0.04253	  1.25087	704.05798	 23.70	
 11.900	-90.000	  1.17933	  0.56825	  0.57541	  0.15997	  1.06374	 -0.04170	  1.25161	704.15997	 23.70	
 11.892	-98.155	  1.17619	  0.50283	  0.63826	  0.16196	  1.05657	 -0.04099	  1.24866	704.16498	 23.70	
 11.893	-106.346	  1.17815	  0.44324	  0.70315	  0.17501	  1.04279	 -0.04040	  1.25013	704.25800	 23.70	
 11.903	-114.597	  1.17787	  0.38672	  0.76630	  0.19352	  1.01930	 -0.03824	  1.25063	704.32098	 23.70	
 11.897	-122.732	  1.18055	  0.33502	  0.82702	  0.22125	  0.98781	 -0.03693	  1.25327	704.35699	 23.70	
 11.894	-130.867	  1.17497	  0.28710	  0.87775	  0.25390	  0.94154	 -0.03613	  1.24697	704.21100	 23.70	
 11.902	-139.148	  1.17733	  0.24877	  0.92765	  0.29674	  0.89413	 -0.03581	  1.24913	704.12299	 23.60	
 11.909	-147.299	  1.17935	  0.21639	  0.96990	  0.34283	  0.84280	 -0.03613	  1.25192	704.12402	 23.60	
 11.889	-155.445	  1.17929	  0.19191	  1.00198	  0.39571	  0.78289	 -0.03681	  1.25121	704.15503	 23.60	
 11.890	-163.610	  1.17843	  0.17395	  1.02456	  0.45337	  0.71992	 -0.03652	  1.24985	704.13800	 23.60	
 11.899	-171.783	  1.17573	  0.16277	  1.03711	  0.51328	  0.65419	 -0.03735	  1.24719	704.23297	 23.60	
 11.900	180.000	  1.18243	  0.16107	  1.04694	  0.57947	  0.59402	 -0.03633	  1.25349	704.23901	 23.70	
 13.600	180.000	  1.14954	  0.08574	  1.08560	  0.55525	  0.56716	 -0.04636	  1.24922	704.09802	 23.70	
 13.608	-172.853	  1.14936	  0.08805	  1.08219	  0.49302	  0.63064	 -0.04667	  1.24932	704.08899	 23.60	
 13.611	-165.583	  1.14641	  0.09712	  1.06744	  0.42994	  0.69363	 -0.04674	  1.24766	704.14600	 23.60	
 13.601	-158.353	  1.15259	  0.11309	  1.05200	  0.37287	  0.76158	 -0.04665	  1.25411	704.12402	 23.70	
 13.609	-151.210	  1.14771	  0.13423	  1.01862	  0.31769	  0.81893	 -0.04553	  1.24799	704.16803	 23.60	
 13.611	-143.999	  1.14864	  0.16182	  0.98365	  0.26890	  0.87661	 -0.04478	  1.24989	704.21698	 23.60	
 13.601	-136.825	  1.15175	  0.19666	  0.94213	  0.22447	  0.93136	 -0.04460	  1.25289	704.12903	 23.60	
 13.596	-129.640	  1.14495	  0.23670	  0.88643	  0.18455	  0.97433	 -0.04412	  1.24570	704.15198	 23.70	
 13.611	-122.431	  1.14190	  0.28137	  0.82989	  0.15200	  1.01185	 -0.04522	  1.24434	704.17102	 23.70	
 13.604	-115.211	  1.14710	  0.33414	  0.77481	  0.12786	  1.04946	 -0.04653	  1.24799	704.05298	 23.70	
 13.595	-108.042	  1.15036	  0.39114	  0.71461	  0.10790	  1.07774	 -0.04783	  1.25219	704.11798	 23.70	
 13.607	-100.793	  1.14880	  0.44910	  0.64867	  0.09350	  1.09400	 -0.04789	  1.25029	704.08099	 23.60	
 13.601	-93.617	  1.14725	  0.51025	  0.58269	  0.08543	  1.10247	 -0.04907	  1.25029	704.00299	 23.60	
 13.601	-86.383	  1.14269	  0.57311	  0.51675	  0.08538	  1.09832	 -0.04695	  1.24495	704.17902	 23.60	
 13.607	-79.207	  1.14279	  0.63792	  0.45539	  0.09215	  1.09009	 -0.04538	  1.24513	704.21002	 23.60	
 13.595	-71.958	  1.14529	  0.70360	  0.39727	  0.10605	  1.07507	 -0.04800	  1.24781	704.17902	 23.60	
 13.604	-64.789	  1.14558	  0.76678	  0.34028	  0.12464	  1.05100	 -0.04735	  1.24843	704.05402	 23.60	
 13.611	-57.569	  1.14654	  0.82764	  0.28899	  0.14975	  1.02021	 -0.04578	  1.24900	704.16101	 23.60	
 13.596	-50.360	  1.14937	  0.88512	  0.24325	  0.18400	  0.98070	 -0.04551	  1.25227	704.08197	 23.60	
 13.601	-43.175	  1.14672	  0.93581	  0.20060	  0.22009	  0.93267	 -0.04609	  1.25014	704.14600	 23.60	
 13.611	-36.001	  1.14413	  0.97906	  0.16484	  0.26348	  0.87871	 -0.04424	  1.24791	704.15503	 23.60	
 13.609	-28.790	  1.14390	  1.01781	  0.13412	  0.31197	  0.82242	 -0.04450	  1.24765	704.22198	 23.60	
 13.601	-21.647	  1.14144	  1.04398	  0.11258	  0.36361	  0.75996	 -0.04744	  1.24409	704.15198	 23.60	
 13.611	-14.417	  1.14867	  1.07614	  0.09392	  0.42330	  0.70205	 -0.04595	  1.25304	704.28101	 23.60	
 13.608	 -7.147	  1.14498	  1.08574	  0.08380	  0.48315	  0.63598	 -0.04488	  1.24924	704.15698	 23.60	
 13.600	  0.000	  1.14723	  1.09239	  0.08076	  0.54577	  0.57340	 -0.04605	  1.25163	704.18799	 23.60	
 13.608	  7.147	  1.14710	  1.09137	  0.08153	  0.61062	  0.50981	 -0.04520	  1.25205	704.28198	 23.60	
 13.611	 14.417	  1.14508	  1.07711	  0.08982	  0.67391	  0.44841	 -0.04593	  1.25032	704.19299	 23.60	
 13.601	 21.647	  1.14291	  1.05522	  0.10476	  0.73566	  0.39000	 -0.04527	  1.24752	704.06500	 23.60	
 13.609	 28.790	  1.14575	  1.02760	  0.12819	  0.80132	  0.33526	 -0.04619	  1.25107	704.06097	 23.60	
 13.611	 36.001	  1.14272	  0.99043	  0.15461	  0.85555	  0.28661	 -0.04409	  1.24756	704.18298	 23.60	
 13.601	 43.175	  1.14586	  0.94915	  0.19142	  0.91116	  0.24515	 -0.04361	  1.25092	704.08899	 23.60	
 13.596	 50.360	  1.14718	  0.90089	  0.23110	  0.95909	  0.20771	 -0.04300	  1.25212	704.12402	 23.60	
 13.611	 57.569	  1.14560	  0.84508	  0.27560	  1.00082	  0.17358	 -0.04291	  1.24965	704.13800	 23.60	
 13.604	 64.789	  1.14404	  0.78358	  0.32609	  1.03263	  0.14729	 -0.04331	  1.24726	704.07001	 23.60	
 13.595	 71.958	  1.14401	  0.72230	  0.38161	  1.05875	  0.12837	 -0.04388	  1.24759	704.15503	 23.60	
 13.607	 79.207	  1.14897	  0.66142	  0.44131	  1.07946	  0.11619	 -0.04395	  1.25214	704.05298	 23.60	
 13.601	 86.383	  1.14415	  0.59350	  0.50229	  1.08397	  0.10926	 -0.04503	  1.24552	704.01599	 23.60	
 13.601	 93.617	  1.13924	  0.52643	  0.56367	  1.07952	  0.10850	 -0.04556	  1.23991	704.03900	 23.60	
 13.607	100.793	  1.13706	  0.46303	  0.62668	  1.06937	  0.11444	 -0.04673	  1.23644	704.02002	 23.60	
 13.595	108.042	  1.13829	  0.40405	  0.69112	  1.05410	  0.12705	 -0.04627	  1.23777	704.01300	 23.60	
 13.604	115.211	  1.14738	  0.35155	  0.75882	  1.03771	  0.14683	 -0.04715	  1.24652	704.08099	 23.60	
 13.611	122.431	  1.14794	  0.29845	  0.81901	  1.00485	  0.17173	 -0.04760	  1.24742	704.09302	 23.60	
 13.596	129.640	  1.14425	  0.25064	  0.87313	  0.96021	  0.20335	 -0.04710	  1.24256	704.10699	 23.60	
 13.601	136.825	  1.14395	  0.20845	  0.92414	  0.91284	  0.24074	 -0.04639	  1.24178	704.03400	 23.60	
 13.611	143.999	  1.14380	  0.17239	  0.96959	  0.86238	  0.28329	 -0.04454	  1.24206	704.01898	 23.60	
 13.609	151.210	  1.14383	  0.14234	  1.00702	  0.80511	  0.33059	 -0.04401	  1.24286	704.08502	 23.60	
 13.601	158.353	  1.14500	  0.11972	  1.03735	  0.74422	  0.38506	 -0.04495	  1.24335	704.07001	 23.60	
 13.611	165.583	  1.14564	  0.10107	  1.06249	  0.68209	  0.44191	 -0.04522	  1.24468	703.98901	 23.60	
 13.608	172.853	  1.14565	  0.09101	  1.07556	  0.61771	  0.50333	 -0.04526	  1.24431	704.10400	 23.60	
 15.298	173.587	  1.11569	  0.01852	  1.11688	  0.59380	  0.47958	 -0.05579	  1.24812	704.12402	 23.60	
 15.291	167.167	  1.11336	  0.02859	  1.10158	  0.65593	  0.41951	 -0.05428	  1.24412	703.90997	 23.60	
 15.307	160.676	  1.11998	  0.04579	  1.08812	  0.72433	  0.36369	 -0.05414	  1.25145	704.12299	 23.60	
 15.300	154.261	  1.11377	  0.06481	  1.05392	  0.78341	  0.30569	 -0.05268	  1.24544	703.97803	 23.60	
 15.288	147.854	  1.11752	  0.09235	  1.02306	  0.84398	  0.25880	 -0.05192	  1.24886	703.91302	 23.60	
 15.293	141.428	  1.12093	  0.12575	  0.98387	  0.90127	  0.21442	 -0.05148	  1.25212	704.04498	 23.60	
 15.299	134.985	  1.11651	  0.16101	  0.93381	  0.94996	  0.17119	 -0.05332	  1.24813	704.02698	 23.60	
 15.305	128.583	  1.11130	  0.20196	  0.87710	  0.99103	  0.13448	 -0.05464	  1.24243	704.01398	 23.60	
 15.309	122.142	  1.11195	  0.24937	  0.82112	  1.03136	  0.10488	 -0.05502	  1.24418	704.04401	 23.60	
 15.304	115.711	  1.11605	  0.29979	  0.76471	  1.06814	  0.07952	 -0.05413	  1.24840	704.01599	 23.60	
 15.297	109.291	  1.11946	  0.35762	  0.70379	  1.09674	  0.06173	 -0.05469	  1.25280	704.05402	 23.60	
 15.293	102.897	  1.11842	  0.41595	  0.63870	  1.11475	  0.04716	 -0.05348	  1.25235	704.14398	 23.60	
 15.293	 96.458	  1.11441	  0.47569	  0.57260	  1.12239	  0.03913	 -0.05308	  1.24837	704.01099	 23.60	
 15.300	 90.000	  1.11238	  0.53600	  0.50862	  1.12495	  0.03450	 -0.05420	  1.24778	703.97498	 23.60	
 15.293	 83.542	  1.11495	  0.60412	  0.44594	  1.12152	  0.04075	 -0.05234	  1.25049	704.15503	 23.60	
 15.293	 77.103	  1.11160	  0.66631	  0.38524	  1.10709	  0.04869	 -0.05100	  1.24794	704.07001	 23.60	
 15.297	 70.709	  1.11174	  0.72997	  0.32780	  1.08810	  0.06259	 -0.05073	  1.24767	704.03003	 23.60	
 15.304	 64.289	  1.10908	  0.78952	  0.27416	  1.05930	  0.08296	 -0.05018	  1.24609	704.08099	 23.60	
 15.309	 57.858	  1.10818	  0.84808	  0.22354	  1.02535	  0.10689	 -0.05021	  1.24706	703.97803	 23.60	
 15.305	 51.417	  1.10977	  0.90444	  0.17884	  0.98624	  0.13833	 -0.05198	  1.24957	704.03101	 23.60	
 15.299	 45.015	  1.10419	  0.94916	  0.13988	  0.93512	  0.17482	 -0.05003	  1.24102	704.17700	 23.60	
 15.293	 38.572	  1.10589	  0.99633	  0.10424	  0.88375	  0.21612	 -0.04870	  1.24322	704.09198	 23.60	
 15.288	 32.146	  1.10990	  1.03673	  0.07659	  0.83136	  0.26249	 -0.05017	  1.24694	704.15503	 23.60	
 15.300	 25.739	  1.10671	  1.06766	  0.05088	  0.77023	  0.31115	 -0.04696	  1.24454	704.07800	 23.60	
 15.307	 19.324	  1.09854	  1.08294	  0.03515	  0.70387	  0.36389	 -0.04985	  1.23470	704.09302	 23.60	
 15.291	 12.833	  1.10569	  1.10771	  0.02159	  0.64430	  0.42395	 -0.04722	  1.24292	704.18298	 23.60	
 15.298	  6.413	  1.11273	  1.12683	  0.01289	  0.58472	  0.48693	 -0.04784	  1.25072	703.96399	 23.60	
 15.300	  0.000	  1.10930	  1.12641	  0.01137	  0.51955	  0.54794	 -0.04639	  1.24790	704.03601	 23.60	
 15.298	 -6.413	  1.10636	  1.11817	  0.01330	  0.45708	  0.60688	 -0.04597	  1.24400	704.13800	 23.60	
 15.291	-12.833	  1.11023	  1.10910	  0.02295	  0.39812	  0.67341	 -0.04613	  1.24709	704.02002	 23.60	
 15.307	-19.324	  1.11195	  1.09031	  0.03793	  0.34110	  0.73766	 -0.04714	  1.24890	703.97198	 23.60	
 15.300	-25.739	  1.10646	  1.05696	  0.05839	  0.28572	  0.79397	 -0.04681	  1.24203	704.12598	 23.60	
 15.288	-32.146	  1.11132	  1.02801	  0.08488	  0.23874	  0.85545	 -0.04695	  1.24824	703.95502	 23.60	
 15.293	-38.572	  1.11215	  0.98635	  0.11508	  0.19132	  0.91131	 -0.04968	  1.24812	703.92902	 23.70	
 15.299	-45.015	  1.10612	  0.93649	  0.14834	  0.14775	  0.95864	 -0.04767	  1.24263	704.06201	 23.60	
 15.305	-51.417	  1.11027	  0.88667	  0.19223	  0.11498	  1.00569	 -0.04861	  1.24600	703.97998	 23.60	
 15.309	-57.858	  1.11305	  0.83193	  0.23855	  0.08399	  1.04749	 -0.04707	  1.24920	703.98199	 23.60	
 15.304	-64.289	  1.11379	  0.77248	  0.28987	  0.05810	  1.08211	 -0.04726	  1.25086	704.03003	 23.60	
 15.297	-70.709	  1.11045	  0.70778	  0.34385	  0.03958	  1.10373	 -0.04753	  1.24641	704.09198	 23.60	
 15.293	-77.103	  1.11191	  0.64480	  0.40293	  0.02736	  1.12257	 -0.04764	  1.24731	704.01398	 23.60	
 15.293	-83.542	  1.11207	  0.58024	  0.46340	  0.01750	  1.13412	 -0.04998	  1.24691	704.13000	 23.60	
 15.300	-90.000	  1.11110	  0.51485	  0.52504	  0.01347	  1.13780	 -0.04981	  1.24821	704.08398	 23.60	
 15.293	-96.458	  1.11497	  0.45435	  0.59117	  0.01861	  1.13564	 -0.05095	  1.25073	704.19598	 23.60	
 15.293	-102.897	  1.11287	  0.39400	  0.65364	  0.02672	  1.12213	 -0.05332	  1.24762	704.15399	 23.60	
 15.297	-109.291	  1.11357	  0.33625	  0.71739	  0.04207	  1.10255	 -0.05368	  1.24755	704.13202	 23.60	
 15.304	-115.711	  1.11039	  0.28006	  0.77797	  0.06182	  1.07326	 -0.05337	  1.24348	704.18597	 23.60	
 15.309	-122.142	  1.11488	  0.23211	  0.83950	  0.08815	  1.04453	 -0.05262	  1.24907	704.17700	 23.60	
 15.305	-128.583	  1.11595	  0.18775	  0.89574	  0.12038	  1.00544	 -0.05175	  1.25047	704.14600	 23.60	
 15.299	-134.985	  1.10689	  0.14447	  0.93927	  0.15406	  0.95258	 -0.05187	  1.24059	704.12299	 23.60	
 15.293	-141.428	  1.11434	  0.10953	  0.98999	  0.19586	  0.90727	 -0.05326	  1.24853	704.08502	 23.60	
 15.288	-147.854	  1.11471	  0.08126	  1.02980	  0.24349	  0.85129	 -0.05396	  1.24762	704.00598	 23.60	
 15.300	-154.261	  1.11508	  0.05816	  1.06284	  0.29466	  0.79462	 -0.05436	  1.24863	704.02197	 23.60	
 15.307	-160.676	  1.10770	  0.03957	  1.08167	  0.34627	  0.72903	 -0.05469	  1.24110	704.14899	 23.70	
 15.291	-167.167	  1.10945	  0.02492	  1.10182	  0.40549	  0.66521	 -0.05623	  1.24284	704.00500	 23.60	
 15.298	-173.587	  1.10992	  0.01825	  1.11242	  0.46549	  0.60309	 -0.05633	  1.24187	704.05798	 23.60	
 15.300	180.000	  1.10734	  0.01809	  1.11244	  0.52735	  0.53888	 -0.05498	  1.23887	703.99597	 23.60	
 17.000	180.000	  1.07003	 -0.05110	  1.14494	  0.50182	  0.51100	 -0.06084	  1.23744	704.03900	 23.60	
 16.990	-174.179	  1.07000	 -0.04838	  1.14228	  0.44045	  0.57311	 -0.06017	  1.23767	704.04401	 23.70	
 17.009	-168.383	  1.07008	 -0.04159	  1.13345	  0.38125	  0.63620	 -0.06073	  1.23935	704.11200	 23.60	
 17.000	-162.596	  1.07509	 -0.02912	  1.12218	  0.32607	  0.70234	 -0.05968	  1.24419	703.93298	 23.60	
 16.990	-156.759	  1.07305	 -0.01236	  1.09590	  0.27235	  0.76111	 -0.05840	  1.24209	703.98901	 23.60	
 16.995	-150.919	  1.07540	  0.00975	  1.06903	  0.22105	  0.82277	 -0.05943	  1.24448	704.06097	 23.60	
 16.988	-145.161	  1.07289	  0.03626	  1.03169	  0.17552	  0.87759	 -0.05999	  1.24191	703.98901	 23.60	
 17.014	-139.343	  1.07186	  0.06498	  0.98991	  0.13072	  0.93003	 -0.05840	  1.24128	704.03699	 23.60	
 17.007	-133.546	  1.07518	  0.09981	  0.94535	  0.09082	  0.98161	 -0.05802	  1.24470	704.02698	 23.70	
 17.001	-127.699	  1.07571	  0.13824	  0.89489	  0.05481	  1.02698	 -0.05777	  1.24653	704.15698	 23.60	
 17.006	-121.937	  1.07334	  0.18283	  0.83789	  0.02660	  1.06295	 -0.05768	  1.24315	703.97998	 23.70	
 17.002	-116.134	  1.06761	  0.22933	  0.77569	  0.00013	  1.09241	 -0.05766	  1.23708	703.97400	 23.60	
 17.001	-110.310	  1.06719	  0.28044	  0.71480	 -0.02063	  1.11835	 -0.05487	  1.23795	704.13702	 23.60	
 16.988	-104.517	  1.07105	  0.33621	  0.65595	 -0.03542	  1.14095	 -0.05435	  1.24085	703.92401	 23.60	
 17.008	-98.662	  1.07404	  0.39443	  0.59312	 -0.04973	  1.16029	 -0.05294	  1.24707	703.96301	 23.60	
 16.996	-92.909	  1.07029	  0.45521	  0.52949	 -0.05194	  1.16179	 -0.05147	  1.24141	703.92700	 23.60	
 16.996	-87.091	  1.06498	  0.51366	  0.46470	 -0.05260	  1.15747	 -0.04833	  1.23686	703.92102	 23.60	
 17.012	-81.253	  1.06465	  0.57793	  0.40498	 -0.04563	  1.15064	 -0.04581	  1.23619	703.97803	 23.60	
 16.988	-75.483	  1.06958	  0.64364	  0.34885	 -0.03534	  1.14279	 -0.04609	  1.24135	703.95801	 23.60	
 17.001	-69.690	  1.06546	  0.70454	  0.29125	 -0.02214	  1.12082	 -0.04621	  1.23717	704.05402	 23.60	
 17.002	-63.866	  1.06627	  0.76495	  0.24056	 -0.00156	  1.09499	 -0.04610	  1.23871	703.94299	 23.60	
 17.006	-58.063	  1.07271	  0.83132	  0.19112	  0.02138	  1.06975	 -0.04625	  1.24599	703.98901	 23.60	
 17.001	-52.301	  1.06918	  0.88505	  0.14378	  0.04984	  1.02761	 -0.04630	  1.24210	704.05902	 23.60	
 17.007	-46.454	  1.07218	  0.93995	  0.10557	  0.08580	  0.98598	 -0.04760	  1.24531	703.91302	 23.60	
 17.014	-40.657	  1.06817	  0.98395	  0.07046	  0.12442	  0.93467	 -0.04739	  1.24076	703.96802	 23.60	
 16.988	-34.839	  1.07016	  1.02732	  0.03835	  0.16629	  0.88324	 -0.04781	  1.24163	703.89001	 23.60	
 16.995	-29.081	  1.07051	  1.06501	  0.01394	  0.21518	  0.82725	 -0.04677	  1.24225	704.05402	 23.60	
 16.990	-23.241	  1.06947	  1.09564	 -0.00989	  0.26397	  0.76807	 -0.04531	  1.24242	703.91302	 23.60	
 17.000	-17.404	  1.07026	  1.12103	 -0.02687	  0.31778	  0.70858	 -0.04580	  1.24245	703.98297	 23.60	
 17.009	-11.617	  1.07066	  1.13990	 -0.04184	  0.37443	  0.64474	 -0.04662	  1.24389	703.94299	 23.60	
 16.990	 -5.821	  1.07685	  1.15721	 -0.05145	  0.43355	  0.58633	 -0.04700	  1.25145	704.03601	 23.60	
 17.000	  0.000	  1.07747	  1.16249	 -0.05441	  0.49588	  0.52444	 -0.04701	  1.25250	703.90900	 23.60	
 16.990	  5.821	  1.07477	  1.15831	 -0.05397	  0.55707	  0.46230	 -0.04607	  1.25076	704.10101	 23.60	
 17.009	 11.617	  1.07311	  1.14946	 -0.04923	  0.61855	  0.40084	 -0.04580	  1.25009	704.07300	 23.60	
 17.000	 17.404	  1.07042	  1.13016	 -0.03671	  0.68053	  0.34325	 -0.04698	  1.24648	704.02002	 23.60	
 16.990	 23.241	  1.06906	  1.10638	 -0.02141	  0.74178	  0.28713	 -0.04751	  1.24439	703.88501	 23.60	
 16.995	 29.081	  1.07378	  1.08131	  0.00235	  0.80582	  0.23876	 -0.04867	  1.24874	703.99597	 23.60	
 16.988	 34.839	  1.07073	  1.04376	  0.02652	  0.86012	  0.19159	 -0.05036	  1.24601	703.94897	 23.60	
 17.014	 40.657	  1.07120	  1.00438	  0.05629	  0.91603	  0.14762	 -0.05134	  1.24710	704.08197	 23.60	
 17.007	 46.454	  1.07104	  0.95824	  0.08834	  0.96594	  0.10644	 -0.05305	  1.24835	704.02002	 23.60	
 17.001	 52.301	  1.07297	  0.90725	  0.13078	  1.01249	  0.07326	 -0.05413	  1.24855	703.96600	 23.60	
 17.006	 58.063	  1.07259	  0.85249	  0.17427	  1.05179	  0.04466	 -0.05203	  1.24854	703.97198	 23.60	
 17.002	 63.866	  1.07164	  0.79396	  0.22241	  1.08404	  0.02064	 -0.05397	  1.24552	703.97400	 23.60	
 17.001	 69.690	  1.06574	  0.72904	  0.27365	  1.10584	  0.00121	 -0.05421	  1.23969	704.17102	 23.60	
 16.988	 75.483	  1.07003	  0.66902	  0.32997	  1.12986	 -0.01419	 -0.05608	  1.24339	704.03003	 23.60	
 17.012	 81.253	  1.07290	  0.60835	  0.38877	  1.14737	 -0.02342	 -0.05682	  1.24515	704.10400	 23.60	
 16.996	 87.091	  1.07451	  0.54591	  0.44983	  1.15480	 -0.02794	 -0.05855	  1.24573	703.97101	 23.60	
 16.996	 92.909	  1.07612	  0.48250	  0.51305	  1.15711	 -0.03023	 -0.05747	  1.24835	704.05298	 23.60	
 17.008	 98.662	  1.07291	  0.41964	  0.57358	  1.14715	 -0.02620	 -0.05586	  1.24380	704.00500	 23.60	
 16.988	104.517	  1.07257	  0.36077	  0.63763	  1.13263	 -0.01480	 -0.05577	  1.24184	704.06201	 23.60	
 17.001	110.310	  1.07786	  0.30600	  0.70304	  1.11820	 -0.00079	 -0.05554	  1.24769	704.01398	 23.60	
 17.002	116.134	  1.07821	  0.25085	  0.76643	  1.09235	  0.01836	 -0.06010	  1.24877	703.97998	 23.50	
 17.006	121.937	  1.07420	  0.20236	  0.82129	  1.05416	  0.04346	 -0.05918	  1.24066	703.95099	 23.60	
 17.001	127.699	  1.07826	  0.15587	  0.88084	  1.02029	  0.07200	 -0.05949	  1.24586	703.96002	 23.60	
 17.007	133.546	  1.07670	  0.11491	  0.93165	  0.97578	  0.10411	 -0.05993	  1.24401	703.94299	 23.60	
 17.014	139.343	  1.07644	  0.07554	  0.98082	  0.92549	  0.14179	 -0.05901	  1.24372	703.85400	 23.60	
 16.988	145.161	  1.07655	  0.04492	  1.02272	  0.87164	  0.18534	 -0.05830	  1.24250	704.04999	 23.60	
 16.995	150.919	  1.07759	  0.01713	  1.06156	  0.81643	  0.23208	 -0.05919	  1.24562	703.94702	 23.60	
 16.990	156.759	  1.08237	 -0.00756	  1.09822	  0.75924	  0.28375	 -0.06007	  1.25044	703.98297	 23.60	
 17.000	162.596	  1.07165	 -0.02630	  1.11264	  0.68986	  0.33486	 -0.05948	  1.23864	703.98798	 23.60	
 17.009	168.383	  1.07749	 -0.04079	  1.13757	  0.63086	  0.39266	 -0.05940	  1.24771	704.05902	 23.60	
 16.990	174.179	  1.08170	 -0.04579	  1.15190	  0.57182	  0.45535	 -0.05910	  1.25050	704.04199	 23.60	
 18.709	174.675	  1.02918	 -0.11565	  1.16790	  0.53442	  0.41961	 -0.06008	  1.23665	704.14398	 23.60	
 18.703	169.441	  1.03344	 -0.10849	  1.16318	  0.59863	  0.36391	 -0.05924	  1.24265	703.94702	 23.60	
 18.691	164.085	  1.03547	 -0.09534	  1.14849	  0.66296	  0.30814	 -0.05930	  1.24422	704.14801	 23.60	
 18.706	158.818	  1.03202	 -0.07938	  1.12238	  0.72314	  0.25331	 -0.05862	  1.23897	703.99902	 23.60	
 18.695	153.537	  1.03692	 -0.05859	  1.09857	  0.78518	  0.20466	 -0.05863	  1.24522	703.98901	 23.60	
 18.704	148.255	  1.03632	 -0.03563	  1.06463	  0.84204	  0.15662	 -0.06023	  1.24367	704.13800	 23.60	
 18.698	142.952	  1.03116	 -0.00516	  1.02037	  0.89475	  0.11251	 -0.05832	  1.23919	704.19299	 23.60	
 18.699	137.625	  1.03474	  0.02644	  0.97833	  0.95045	  0.07087	 -0.05974	  1.24325	704.09900	 23.60	
 18.705	132.343	  1.03549	  0.06557	  0.92991	  0.99620	  0.03798	 -0.05934	  1.24305	704.09802	 23.60	
 18.713	127.067	  1.03852	  0.10687	  0.87943	  1.04295	  0.00565	 -0.06037	  1.24784	704.06500	 23.60	
 18.700	121.794	  1.03720	  0.15227	  0.82246	  1.08030	 -0.02170	 -0.05595	  1.24676	703.84497	 23.60	
 18.698	116.504	  1.03497	  0.20115	  0.76193	  1.11091	 -0.04429	 -0.05317	  1.24391	703.89001	 23.60	
 18.707	111.165	  1.03457	  0.25235	  0.70117	  1.13665	 -0.06236	 -0.05225	  1.24387	703.88098	 23.60	
 18.690	105.863	  1.03560	  0.30813	  0.63974	  1.15859	 -0.07690	 -0.05184	  1.24581	703.87903	 23.60	
 18.696	100.583	  1.03486	  0.36546	  0.57665	  1.17274	 -0.08686	 -0.05468	  1.24575	703.84198	 23.60	
 18.700	 95.309	  1.02921	  0.42271	  0.51120	  1.17549	 -0.09331	 -0.05418	  1.24059	703.96399	 23.60	
 18.700	 90.000	  1.02954	  0.48447	  0.44976	  1.17834	 -0.09440	 -0.05598	  1.24051	704.05402	 23.60	
 18.700	 84.691	  1.02970	  0.54641	  0.38939	  1.17576	 -0.09305	 -0.05526	  1.24156	704.05402	 23.60	
 18.696	 79.417	  1.02888	  0.60843	  0.33019	  1.16706	 -0.08761	 -0.05561	  1.24379	704.00500	 23.60	
 18.690	 74.137	  1.02649	  0.66759	  0.27294	  1.14927	 -0.07930	 -0.05547	  1.23956	703.97803	 23.60	
 18.707	 68.835	  1.02411	  0.72917	  0.22025	  1.12523	 -0.06038	 -0.05254	  1.23819	704.06799	 23.60	
 18.698	 63.496	  1.02257	  0.78782	  0.16780	  1.09720	 -0.04374	 -0.05089	  1.23746	703.86798	 23.60	
 18.700	 58.206	  1.02607	  0.84765	  0.12058	  1.06515	 -0.02407	 -0.05161	  1.24100	703.96600	 23.60	
 18.713	 52.933	  1.02647	  0.90408	  0.07622	  1.02666	  0.00205	 -0.05416	  1.24210	704.05798	 23.60	
 18.705	 47.657	  1.02902	  0.95754	  0.03677	  0.98452	  0.03418	 -0.05291	  1.24490	704.03003	 23.60	
 18.699	 42.375	  1.02323	  0.99958	  0.00114	  0.93135	  0.06939	 -0.05028	  1.23988	703.96399	 23.60	
 18.698	 37.048	  1.02621	  1.04395	 -0.02942	  0.88149	  0.10996	 -0.04827	  1.24333	704.05798	 23.50	
 18.704	 31.745	  1.02856	  1.08290	 -0.05296	  0.82574	  0.15819	 -0.04484	  1.24462	704.04700	 23.50	
 18.695	 26.463	  1.02907	  1.11510	 -0.07508	  0.76819	  0.20648	 -0.04265	  1.24564	704.03101	 23.50	
 18.706	 21.182	  1.03289	  1.14636	 -0.09639	  0.71010	  0.25687	 -0.04102	  1.25140	704.05402	 23.50	
 18.691	 15.915	  1.02802	  1.15999	 -0.11002	  0.64543	  0.30855	 -0.04155	  1.24363	704.00299	 23.50	
 18.703	 10.559	  1.02576	  1.17188	 -0.11990	  0.58038	  0.36570	 -0.04067	  1.23984	704.09302	 23.50	
 18.709	  5.325	  1.02700	  1.17981	 -0.12341	  0.52069	  0.42474	 -0.04139	  1.24047	703.89801	 23.50	
 18.700	  0.000	  1.02802	  1.18181	 -0.12367	  0.45933	  0.48576	 -0.04119	  1.24131	704.07599	 23.50	
 18.709	 -5.325	  1.02971	  1.18006	 -0.12005	  0.40060	  0.54869	 -0.04074	  1.24344	703.91199	 23.50	
 18.703	-10.559	  1.03182	  1.17255	 -0.11208	  0.34347	  0.61179	 -0.03957	  1.24489	704.02197	 23.50	
 18.691	-15.915	  1.02825	  1.15084	 -0.09774	  0.28682	  0.67234	 -0.03982	  1.23955	704.06097	 23.50	
 18.706	-21.182	  1.03319	  1.13389	 -0.08367	  0.23503	  0.73508	 -0.04037	  1.24525	704.05902	 23.50	
 18.695	-26.463	  1.03693	  1.11070	 -0.06440	  0.18553	  0.79791	 -0.04023	  1.25067	704.02002	 23.60	
 18.704	-31.745	  1.02676	  1.06526	 -0.03920	  0.13682	  0.84807	 -0.04160	  1.23737	704.06799	 23.50	
 18.698	-37.048	  1.02992	  1.02907	 -0.01186	  0.09311	  0.90477	 -0.04323	  1.24235	703.99103	 23.60	
 18.699	-42.375	  1.02977	  0.98458	  0.02162	  0.05445	  0.95458	 -0.04322	  1.24152	704.00800	 23.60	
 18.705	-47.657	  1.03035	  0.93640	  0.05630	  0.01651	  1.00314	 -0.04265	  1.24202	704.01398	 23.60	
 18.713	-52.933	  1.03195	  0.88347	  0.09857	 -0.01350	  1.04607	 -0.04376	  1.24255	703.95203	 23.60	
 18.700	-58.206	  1.02656	  0.82266	  0.14291	 -0.03991	  1.07756	 -0.04314	  1.23615	703.91901	 23.60	
 18.698	-63.496	  1.02675	  0.76560	  0.18914	 -0.06359	  1.11038	 -0.04278	  1.23772	704.00598	 23.60	
 18.707	-68.835	  1.02616	  0.70412	  0.24149	 -0.08259	  1.13592	 -0.04045	  1.23617	703.94299	 23.60	
 18.690	-74.137	  1.02847	  0.64376	  0.29564	 -0.09765	  1.15807	 -0.04015	  1.23899	704.06201	 23.60	
 18.696	-79.417	  1.03057	  0.58183	  0.35304	 -0.10791	  1.17467	 -0.04076	  1.24080	704.00000	 23.60	
 18.700	-84.691	  1.02869	  0.51851	  0.41104	 -0.11497	  1.18116	 -0.04194	  1.23952	703.97101	 23.60	
 18.700	-90.000	  1.02932	  0.45725	  0.47213	 -0.11628	  1.18412	 -0.04609	  1.24017	704.01898	 23.60	
 18.700	-95.309	  1.02677	  0.39625	  0.53201	 -0.11230	  1.17688	 -0.04518	  1.23570	703.91901	 23.60	
 18.696	-100.583	  1.02824	  0.33828	  0.59450	 -0.10690	  1.16932	 -0.04855	  1.23727	704.01398	 23.60	
 18.690	-105.863	  1.03087	  0.28374	  0.65756	 -0.09511	  1.15702	 -0.04922	  1.23915	703.90100	 23.60	
 18.707	-111.165	  1.02694	  0.22946	  0.71561	 -0.08100	  1.13228	 -0.05325	  1.23492	703.83899	 23.60	
 18.698	-116.504	  1.02611	  0.17740	  0.77508	 -0.06244	  1.10468	 -0.05424	  1.23443	703.93500	 23.60	
 18.700	-121.794	  1.02991	  0.13216	  0.83424	 -0.03868	  1.07691	 -0.05618	  1.23975	703.96301	 23.60	
 18.713	-127.067	  1.03182	  0.08858	  0.89201	 -0.01043	  1.04067	 -0.05514	  1.24177	703.95801	 23.60	
 18.705	-132.343	  1.03390	  0.04916	  0.94466	  0.02243	  0.99834	 -0.05623	  1.24329	703.90399	 23.60	
 18.699	-137.625	  1.03316	  0.01554	  0.99099	  0.06019	  0.94953	 -0.05697	  1.24113	703.88098	 23.60	
 18.698	-142.952	  1.03557	 -0.01833	  1.03705	  0.09904	  0.89996	 -0.05822	  1.24588	703.89001	 23.60	
 18.704	-148.255	  1.03474	 -0.04600	  1.07421	  0.14223	  0.84454	 -0.05939	  1.24512	703.97101	 23.60	
 18.695	-153.537	  1.02793	 -0.07057	  1.09980	  0.18830	  0.78119	 -0.05945	  1.23731	703.94397	 23.60	
 18.706	-158.818	  1.02868	 -0.08840	  1.12721	  0.23943	  0.72206	 -0.05817	  1.23741	704.00299	 23.60	
 18.691	-164.085	  1.02923	 -0.10247	  1.14786	  0.29372	  0.66127	 -0.05827	  1.23826	703.79498	 23.60	
 18.703	-169.441	  1.03088	 -0.11351	  1.16500	  0.35238	  0.59976	 -0.05877	  1.24016	703.90997	 23.60	
 18.709	-174.675	  1.03348	 -0.12157	  1.17686	  0.41125	  0.53761	 -0.05989	  1.24359	703.96399	 23.60	
 18.700	180.000	  1.02749	 -0.12072	  1.17130	  0.46925	  0.47515	 -0.05833	  1.23632	703.98297	 23.60	
 20.400	180.000	  0.98835	 -0.20021	  1.20394	  0.43634	  0.44015	 -0.05595	  1.24662	703.92102	 23.60	
 20.401	-175.153	  0.98155	 -0.19821	  1.19489	  0.37336	  0.49772	 -0.05392	  1.23837	703.94000	 23.60	
 20.407	-170.264	  0.98070	 -0.19399	  1.18692	  0.31427	  0.55843	 -0.05397	  1.23657	703.96301	 23.60	
 20.410	-165.423	  0.98226	 -0.18499	  1.17578	  0.25717	  0.62180	 -0.05345	  1.23936	703.89502	 23.60	
 20.392	-160.496	  0.98258	 -0.16992	  1.15571	  0.20440	  0.68355	 -0.05362	  1.23909	703.97998	 23.60	
 20.401	-155.705	  0.98428	 -0.15498	  1.13408	  0.15134	  0.74462	 -0.05501	  1.24029	703.89801	 23.60	
 20.405	-150.835	  0.98212	 -0.13476	  1.10212	  0.10201	  0.80213	 -0.05568	  1.23850	704.00800	 23.60	
 20.397	-145.903	  0.98596	 -0.11150	  1.07087	  0.05662	  0.86170	 -0.05686	  1.24279	703.84698	 23.60	
 20.392	-141.062	  0.98287	 -0.08183	  1.02776	  0.01601	  0.91271	 -0.05438	  1.23978	704.01398	 23.60	
 20.396	-136.227	  0.98727	 -0.05156	  0.98825	 -0.02397	  0.96856	 -0.05505	  1.24513	703.98602	 23.60	
 20.408	-131.372	  0.98221	 -0.01551	  0.93410	 -0.05894	  1.01011	 -0.05461	  1.23860	704.01300	 23.60	
 20.410	-126.511	  0.98405	  0.02355	  0.88442	 -0.08948	  1.05404	 -0.05175	  1.24034	704.05402	 23.60	
 20.400	-121.604	  0.98405	  0.06776	  0.82844	 -0.11523	  1.09136	 -0.05166	  1.23993	704.14801	 23.60	
 20.403	-116.741	  0.98584	  0.11388	  0.77261	 -0.13895	  1.12637	 -0.04887	  1.24299	704.00598	 23.60	
 20.413	-111.900	  0.98643	  0.16301	  0.71314	 -0.15926	  1.15496	 -0.04973	  1.24427	703.97101	 23.60	
 20.398	-107.004	  0.98458	  0.21557	  0.65055	 -0.17456	  1.17564	 -0.04644	  1.24189	703.98297	 23.60	
 20.394	-102.132	  0.98417	  0.27093	  0.58823	 -0.18618	  1.19183	 -0.04450	  1.24219	704.04498	 23.60	
 20.403	-97.332	  0.97957	  0.32421	  0.52331	 -0.19648	  1.19794	 -0.04296	  1.23733	704.08197	 23.60	
 20.392	-92.440	  0.97726	  0.38293	  0.46129	 -0.19918	  1.20041	 -0.04080	  1.23450	704.03101	 23.60	
 20.392	-87.560	  0.97697	  0.44443	  0.39991	 -0.19954	  1.20086	 -0.03852	  1.23425	704.08398	 23.60	
 20.403	-82.668	  0.97285	  0.50411	  0.33890	 -0.19588	  1.19218	 -0.03827	  1.23139	704.11798	 23.60	
 20.394	-77.868	  0.97481	  0.56679	  0.28248	 -0.18867	  1.18560	 -0.03604	  1.23292	704.14099	 23.60	
 20.398	-72.996	  0.97746	  0.63150	  0.22726	 -0.17763	  1.17269	 -0.03773	  1.23694	704.10602	 23.60	
 20.413	-68.100	  0.97621	  0.69218	  0.17453	 -0.16140	  1.14950	 -0.03890	  1.23384	704.08899	 23.60	
 20.403	-63.259	  0.97274	  0.75007	  0.12581	 -0.13885	  1.11732	 -0.03735	  1.22794	704.09900	 23.60	
 20.400	-58.396	  0.97263	  0.80852	  0.07825	 -0.11797	  1.08701	 -0.03566	  1.22844	703.99597	 23.60	
 20.410	-53.489	  0.97855	  0.87025	  0.03422	 -0.09324	  1.05729	 -0.03814	  1.23731	704.01898	 23.60	
 20.408	-48.628	  0.97630	  0.92158	 -0.00593	 -0.06367	  1.01422	 -0.03767	  1.23555	704.04498	 23.60	
 20.396	-43.773	  0.97709	  0.97128	 -0.04059	 -0.02748	  0.96766	 -0.03870	  1.23355	703.90601	 23.60	
 20.392	-38.938	  0.97651	  1.01591	 -0.07382	  0.00895	  0.91746	 -0.04254	  1.23436	703.98199	 23.60	
 20.397	-34.097	  0.97512	  1.05593	 -0.10189	  0.04968	  0.86407	 -0.04060	  1.23272	703.84802	 23.60	
 20.405	-29.165	  0.97591	  1.09472	 -0.12868	  0.09435	  0.80875	 -0.03786	  1.23479	703.98199	 23.60	
 20.401	-24.295	  0.97189	  1.12183	 -0.14910	  0.14253	  0.74656	 -0.03717	  1.22959	703.91199	 23.60	
 20.392	-19.504	  0.97470	  1.14994	 -0.16619	  0.19228	  0.69044	 -0.03547	  1.23248	703.99402	 23.60	
 20.410	-14.577	  0.97419	  1.17059	 -0.18144	  0.24492	  0.62950	 -0.03566	  1.23380	704.07001	 23.60	
 20.407	 -9.736	  0.97177	  1.18208	 -0.19075	  0.29993	  0.56757	 -0.03711	  1.23094	704.17999	 23.60	
 20.401	 -4.847	  0.97677	  1.19723	 -0.19794	  0.35984	  0.50862	 -0.03551	  1.23625	703.95801	 23.60	
 20.400	  0.000	  0.97374	  1.19813	 -0.20144	  0.41808	  0.44634	 -0.03700	  1.23506	703.99597	 23.60	
 20.401	  4.847	  0.97369	  1.19679	 -0.19889	  0.47915	  0.38694	 -0.03521	  1.23450	703.96399	 23.60	
 20.407	  9.736	  0.97478	  1.19128	 -0.19293	  0.54143	  0.32998	 -0.03444	  1.23572	703.99402	 23.60	
 20.410	 14.577	  0.97374	  1.17802	 -0.18568	  0.60160	  0.27398	 -0.03660	  1.23453	704.01300	 23.60	
 20.392	 19.504	  0.97502	  1.16050	 -0.17092	  0.66535	  0.22051	 -0.03694	  1.23616	703.99902	 23.60	
 20.401	 24.295	  0.97608	  1.13898	 -0.15557	  0.72484	  0.17074	 -0.03837	  1.23801	703.88702	 23.60	
 20.405	 29.165	  0.97295	  1.10692	 -0.13534	  0.78292	  0.12149	 -0.04125	  1.23405	703.97498	 23.60	
 20.397	 34.097	  0.96948	  1.06889	 -0.11053	  0.83749	  0.07573	 -0.04377	  1.22892	703.82300	 23.60	
 20.392	 38.938	  0.97841	  1.04003	 -0.08311	  0.89889	  0.03667	 -0.04515	  1.24222	704.00500	 23.60	
 20.396	 43.773	  0.97571	  0.99358	 -0.05252	  0.94654	 -0.00139	 -0.04672	  1.23714	703.81702	 23.60	
 20.408	 48.628	  0.96981	  0.94141	 -0.01873	  0.98993	 -0.03714	 -0.04924	  1.23062	703.91803	 23.60	
 20.410	 53.489	  0.97008	  0.88969	  0.01911	  1.03303	 -0.06769	 -0.04796	  1.22993	704.02802	 23.60	
 20.400	 58.396	  0.97179	  0.83690	  0.06075	  1.07328	 -0.09552	 -0.04785	  1.23264	703.90100	 23.50	
 20.403	 63.259	  0.97441	  0.78149	  0.10762	  1.10927	 -0.11814	 -0.04957	  1.23554	703.93500	 23.60	
 20.413	 68.100	  0.97691	  0.72503	  0.15580	  1.13992	 -0.13803	 -0.05025	  1.23793	703.86499	 23.50	
 20.398	 72.996	  0.97519	  0.66198	  0.20851	  1.15877	 -0.15187	 -0.05104	  1.23321	704.08197	 23.50	
 20.394	 77.868	  0.97351	  0.59794	  0.26273	  1.17243	 -0.16289	 -0.05068	  1.23127	703.97498	 23.50	
 20.403	 82.668	  0.97523	  0.53799	  0.31858	  1.18568	 -0.17163	 -0.05121	  1.23301	703.92700	 23.50	
 20.392	 87.560	  0.97987	  0.47911	  0.37890	  1.19613	 -0.17641	 -0.04896	  1.23722	704.11200	 23.50	
 20.392	 92.440	  0.98083	  0.41560	  0.44055	  1.19745	 -0.17856	 -0.05021	  1.23736	703.97101	 23.50	
 20.403	 97.332	  0.98135	  0.35719	  0.50220	  1.19190	 -0.17352	 -0.04772	  1.23706	703.98199	 23.50	
 20.394	102.132	  0.98348	  0.29969	  0.56434	  1.18395	 -0.16758	 -0.04672	  1.23822	704.05402	 23.50	
 20.398	107.004	  0.98410	  0.24313	  0.62736	  1.16846	 -0.15571	 -0.04700	  1.23833	704.03699	 23.50	
 20.413	111.900	  0.98475	  0.19005	  0.68999	  1.14772	 -0.14083	 -0.04832	  1.23821	703.98798	 23.50	
 20.403	116.741	  0.98638	  0.14030	  0.75130	  1.12307	 -0.12246	 -0.05030	  1.23999	704.08398	 23.50	
 20.400	121.604	  0.98428	  0.09001	  0.80853	  1.08924	 -0.10141	 -0.05308	  1.23906	703.90601	 23.50	
 20.410	126.511	  0.98524	  0.04560	  0.86641	  1.05277	 -0.07585	 -0.05403	  1.23886	703.94000	 23.50	
 20.408	131.372	  0.98419	  0.00411	  0.91876	  1.00884	 -0.04535	 -0.05434	  1.23710	703.83002	 23.50	
 20.396	136.227	  0.98937	 -0.03134	  0.97253	  0.96603	 -0.00962	 -0.05489	  1.24095	703.84698	 23.50	
 20.392	141.062	  0.98754	 -0.06493	  1.01753	  0.91505	  0.02774	 -0.05471	  1.24049	703.88702	 23.50	
 20.397	145.903	  0.98452	 -0.09454	  1.05519	  0.85873	  0.06865	 -0.05549	  1.23649	703.99103	 23.50	
 20.405	150.835	  0.98508	 -0.12235	  1.09333	  0.80200	  0.11236	 -0.05598	  1.23719	703.91602	 23.50	
 20.401	155.705	  0.98629	 -0.14249	  1.12454	  0.74300	  0.16258	 -0.05874	  1.23876	703.92700	 23.50	
 20.392	160.496	  0.98324	 -0.16132	  1.14768	  0.68254	  0.21056	 -0.05937	  1.23541	704.04498	 23.50	
 20.410	165.423	  0.98545	 -0.17561	  1.17130	  0.62077	  0.26670	 -0.05671	  1.23803	704.04700	 23.50	
 20.407	170.264	  0.98572	 -0.18437	  1.18648	  0.56066	  0.32314	 -0.05463	  1.23954	703.90100	 23.50	
 20.401	175.153	  0.98494	 -0.19048	  1.19436	  0.49919	  0.38018	 -0.05538	  1.23892	703.92603	 23.50	
  0.141	 45.000	  1.24240	  0.65180	  0.65025	  0.66037	  0.65817	  0.00546	  1.23202	703.89001	 23.50	
  4.001	128.691	  1.24465	  0.55801	  0.72832	  0.75892	  0.54848	  0.00062	  1.23840	703.94702	 23.50	
  4.002	 76.995	  1.24518	  0.68009	  0.60305	  0.78633	  0.52759	  0.00114	  1.23969	704.01898	 23.50	
  4.002	 25.892	  1.24899	  0.78455	  0.51288	  0.70652	  0.59828	  0.00002	  1.24420	704.03699	 23.50	
  4.002	-25.892	  1.24157	  0.77737	  0.51111	  0.57627	  0.72194	 -0.00079	  1.23739	704.05402	 23.50	
  4.002	-76.995	  1.24585	  0.67613	  0.60509	  0.50543	  0.80722	 -0.00138	  1.24080	704.11298	 23.50	
  4.001	-128.691	  1.24073	  0.55042	  0.72860	  0.52832	  0.77269	 -0.00070	  1.23551	703.98199	 23.60	
  4.000	180.000	  1.24938	  0.50717	  0.79202	  0.64298	  0.65979	  0.00067	  1.24335	704.04999	 23.50	
  8.000	180.000	  1.21977	  0.33492	  0.92396	  0.61549	  0.62971	 -0.01412	  1.23818	703.92401	 23.50	
  7.991	-152.370	  1.21956	  0.36168	  0.88842	  0.47983	  0.77046	 -0.01541	  1.23918	704.05798	 23.50	
  7.997	-124.550	  1.22008	  0.44743	  0.78734	  0.37785	  0.88697	 -0.01512	  1.24105	704.07599	 23.60	
  8.006	-96.837	  1.22101	  0.57634	  0.64951	  0.33256	  0.94236	 -0.01825	  1.24101	704.15503	 23.60	
  7.988	-69.228	  1.21551	  0.71834	  0.50598	  0.34597	  0.92021	 -0.02032	  1.23745	704.09302	 23.60	
  7.997	-41.563	  1.21364	  0.84300	  0.39478	  0.41682	  0.83396	 -0.01769	  1.23484	703.96600	 23.60	
  8.008	-13.821	  1.21802	  0.92138	  0.33279	  0.53811	  0.70373	 -0.01882	  1.23966	703.86401	 23.60	
  8.008	 13.821	  1.22198	  0.92668	  0.33313	  0.68473	  0.56167	 -0.01692	  1.24288	703.97400	 23.60	
  7.997	 41.563	  1.21582	  0.85224	  0.38902	  0.81301	  0.43979	 -0.01529	  1.23705	704.02197	 23.60	
  7.988	 69.228	  1.21704	  0.72810	  0.49894	  0.90194	  0.36770	 -0.01538	  1.23721	703.92700	 23.60	
  8.006	 96.837	  1.22141	  0.58623	  0.64079	  0.92610	  0.35219	 -0.01479	  1.24265	703.94702	 23.60	
  7.997	124.550	  1.22446	  0.45812	  0.78226	  0.87476	  0.39740	 -0.01485	  1.24356	703.89301	 23.60	
  7.991	152.370	  1.22065	  0.36869	  0.88401	  0.75644	  0.49628	 -0.01412	  1.23932	703.83698	 23.60	
 12.009	161.059	  1.16666	  0.17765	  1.00967	  0.71889	  0.43964	 -0.03569	  1.23726	703.92401	 23.60	
 12.013	142.081	  1.17346	  0.24405	  0.93421	  0.86143	  0.32225	 -0.03548	  1.24351	704.02802	 23.60	
 12.006	123.113	  1.16890	  0.34351	  0.81091	  0.96385	  0.23522	 -0.03621	  1.23866	704.03699	 23.60	
 12.007	104.200	  1.17125	  0.47349	  0.66924	  1.02972	  0.18618	 -0.03676	  1.24339	704.03699	 23.60	
 11.989	 85.301	  1.16941	  0.61980	  0.52075	  1.03955	  0.17831	 -0.03540	  1.24130	704.09601	 23.60	
 12.013	 66.294	  1.17063	  0.76864	  0.38291	  1.00134	  0.20790	 -0.03596	  1.24405	703.85400	 23.50	
 12.012	 47.388	  1.17239	  0.90009	  0.27242	  0.91402	  0.27928	 -0.03556	  1.24759	703.87799	 23.60	
 11.990	 28.440	  1.16442	  0.98973	  0.19273	  0.78253	  0.38134	 -0.03688	  1.23900	704.00000	 23.60	
 11.991	  9.464	  1.16026	  1.03488	  0.15443	  0.63625	  0.51214	 -0.03822	  1.23511	704.06201	 23.60	
 11.991	 -9.464	  1.16378	  1.03541	  0.15800	  0.49171	  0.66035	 -0.03783	  1.23754	704.03003	 23.60	
 11.990	-28.440	  1.15931	  0.97621	  0.19999	  0.35792	  0.80178	 -0.03783	  1.23276	704.09003	 23.60	
 12.012	-47.388	  1.16490	  0.88255	  0.27823	  0.25383	  0.92754	 -0.03912	  1.23851	704.07800	 23.60	
 12.013	-66.294	  1.16378	  0.74871	  0.39247	  0.18382	  1.01367	 -0.03981	  1.23858	704.12903	 23.60	
 11.989	-85.301	  1.16536	  0.60074	  0.53175	  0.15554	  1.05090	 -0.04065	  1.23876	704.22400	 23.60	
 12.007	-104.200	  1.16466	  0.45523	  0.67977	  0.16623	  1.03678	 -0.03873	  1.23796	703.97803	 23.60	
 12.006	-123.113	  1.16091	  0.32819	  0.81744	  0.21595	  0.97013	 -0.03632	  1.23295	703.97400	 23.60	
 12.013	-142.081	  1.16245	  0.23277	  0.93470	  0.30628	  0.86366	 -0.03558	  1.23467	704.02301	 23.60	
 12.009	-161.059	  1.16325	  0.17454	  1.00974	  0.42747	  0.72803	 -0.03583	  1.23357	704.19299	 23.60	
 16.000	180.000	  1.09264	 -0.00373	  1.12613	  0.51891	  0.52690	 -0.05739	  1.23727	704.06201	 23.60	
 15.990	-165.604	  1.08877	  0.00823	  1.10492	  0.37735	  0.66938	 -0.05635	  1.23272	704.07501	 23.60	
 16.002	-151.165	  1.08500	  0.05019	  1.04413	  0.25228	  0.80755	 -0.05472	  1.22846	703.97101	 23.60	
 16.002	-136.836	  1.09150	  0.11935	  0.95756	  0.14840	  0.93924	 -0.05400	  1.23665	703.99701	 23.60	
 15.995	-122.439	  1.09781	  0.21435	  0.84380	  0.06932	  1.04522	 -0.05425	  1.24391	704.00598	 23.60	
 15.993	-107.966	  1.09140	  0.33275	  0.69867	  0.01658	  1.10687	 -0.05528	  1.23694	704.05402	 23.60	
 16.005	-93.629	  1.09230	  0.46991	  0.55399	 -0.00502	  1.13832	 -0.05021	  1.24003	703.95099	 23.60	
 15.992	-79.234	  1.09164	  0.61484	  0.40928	 -0.00186	  1.13058	 -0.04812	  1.24062	703.94000	 23.60	
 16.009	-64.774	  1.09236	  0.76259	  0.27807	  0.03414	  1.08437	 -0.04863	  1.24140	703.97400	 23.60	
 15.997	-50.364	  1.09165	  0.89640	  0.16909	  0.09951	  0.99921	 -0.04884	  1.23992	704.03900	 23.60	
 15.997	-36.045	  1.08431	  1.00188	  0.08012	  0.18629	  0.88086	 -0.04721	  1.23195	703.90601	 23.60	
 16.000	-21.597	  1.08429	  1.08062	  0.02407	  0.30199	  0.74663	 -0.04510	  1.23335	704.07300	 23.60	
 16.003	 -7.169	  1.08627	  1.12213	 -0.00356	  0.43646	  0.60287	 -0.04806	  1.23425	704.04999	 23.60	
 16.003	  7.169	  1.08859	  1.12879	 -0.00715	  0.58139	  0.46089	 -0.04716	  1.23939	704.11603	 23.60	
 16.000	 21.597	  1.09013	  1.09449	  0.01975	  0.72837	  0.32848	 -0.04858	  1.24046	703.98901	 23.60	
 15.997	 36.045	  1.08875	  1.01814	  0.07421	  0.86264	  0.21355	 -0.05135	  1.23829	704.15503	 23.60	
 15.997	 50.364	  1.08915	  0.91274	  0.15423	  0.97978	  0.12031	 -0.05182	  1.23904	704.07501	 23.60	
 16.009	 64.774	  1.08899	  0.78285	  0.25859	  1.06517	  0.05462	 -0.05241	  1.23811	704.17499	 23.60	
 15.992	 79.234	  1.08408	  0.63327	  0.38561	  1.11128	  0.01397	 -0.05340	  1.23323	704.07300	 23.60	
 16.005	 93.629	  1.09057	  0.48884	  0.53107	  1.12784	  0.00623	 -0.05440	  1.23790	704.21899	 23.60	
 15.993	107.966	  1.09154	  0.34894	  0.67990	  1.10060	  0.02715	 -0.05525	  1.23785	704.18298	 23.60	
 15.995	122.439	  1.09473	  0.22649	  0.82312	  1.03468	  0.07747	 -0.05689	  1.23892	704.08398	 23.60	
 16.002	136.836	  1.09428	  0.12571	  0.94772	  0.93428	  0.15381	 -0.05595	  1.23863	704.03601	 23.60	
 16.002	151.165	  1.09002	  0.05126	  1.04057	  0.80439	  0.25652	 -0.05471	  1.23348	704.11798	 23.60	
 15.990	165.604	  1.09630	  0.00861	  1.10706	  0.66515	  0.38598	 -0.05491	  1.23965	704.15698	 23.60	
 20.003	168.362	  0.99437	 -0.16600	  1.17368	  0.58852	  0.30988	 -0.05713	  1.23685	704.08398	 23.60	
 20.008	156.764	  0.99756	 -0.13089	  1.12816	  0.73541	  0.18542	 -0.05771	  1.23944	704.05902	 23.60	
 20.000	145.147	  0.99478	 -0.07296	  1.04463	  0.86738	  0.07619	 -0.05695	  1.23454	703.94098	 23.60	
 19.995	133.545	  0.99763	  0.00556	  0.94225	  0.98781	 -0.01090	 -0.05744	  1.23787	704.06702	 23.60	
 20.009	121.926	  0.99787	  0.10328	  0.81620	  1.08548	 -0.08120	 -0.05367	  1.24061	703.95801	 23.60	
 20.005	110.327	  0.99785	  0.22010	  0.67703	  1.15242	 -0.12737	 -0.05057	  1.24072	704.04401	 23.60	
 19.989	 98.733	  0.99555	  0.35198	  0.52997	  1.18673	 -0.15167	 -0.04880	  1.23829	704.07001	 23.60	
 19.999	 87.075	  0.99538	  0.49523	  0.38622	  1.19490	 -0.15658	 -0.05151	  1.24217	704.11200	 23.60	
 19.992	 75.457	  0.98928	  0.63669	  0.25082	  1.16463	 -0.13793	 -0.05107	  1.23536	704.09302	 23.60	
 20.009	 63.844	  0.98976	  0.77982	  0.12887	  1.11224	 -0.10195	 -0.04970	  1.23914	704.09900	 23.60	
 19.989	 52.269	  0.99009	  0.91053	  0.02541	  1.02736	 -0.04280	 -0.04814	  1.23945	704.04999	 23.60	
 19.999	 40.602	  0.99135	  1.02592	 -0.05951	  0.91823	  0.03669	 -0.04501	  1.24433	704.11499	 23.60	
 20.004	 29.051	  0.99044	  1.11125	 -0.12001	  0.78856	  0.13697	 -0.04176	  1.24225	704.15399	 23.60	
 20.005	 17.433	  0.98792	  1.16718	 -0.16092	  0.64529	  0.25515	 -0.03610	  1.23988	704.04401	 23.60	
 20.006	  5.780	  0.98964	  1.19610	 -0.18001	  0.50164	  0.38759	 -0.03636	  1.24142	704.00500	 23.60	
 20.006	 -5.780	  0.99018	  1.19388	 -0.17905	  0.36046	  0.52878	 -0.03802	  1.23944	703.96301	 23.60	
 20.005	-17.433	  0.98728	  1.15638	 -0.15460	  0.22674	  0.67204	 -0.03814	  1.23546	704.00000	 23.60	
 20.004	-29.051	  0.99185	  1.09752	 -0.11259	  0.11053	  0.81334	 -0.04090	  1.24035	703.96002	 23.60	
 19.999	-40.602	  0.99369	  1.00573	 -0.04563	  0.01407	  0.94000	 -0.04034	  1.24191	703.90900	 23.60	
 19.989	-52.269	  0.99373	  0.88751	  0.04148	 -0.06652	  1.04824	 -0.03866	  1.24272	703.98297	 23.60	
 20.009	-63.844	  0.99216	  0.75302	  0.14693	 -0.12443	  1.12704	 -0.03906	  1.23953	704.10602	 23.60	
 19.992	-75.457	  0.99480	  0.60962	  0.27242	 -0.16016	  1.18037	 -0.03662	  1.24105	704.08899	 23.60	
 19.999	-87.075	  0.99126	  0.46205	  0.40544	 -0.17730	  1.19792	 -0.03931	  1.23741	703.96802	 23.60	
 19.989	-98.733	  0.99514	  0.32273	  0.55255	 -0.17061	  1.19271	 -0.04501	  1.24083	704.06799	 23.60	
 20.005	-110.327	  0.99453	  0.19401	  0.69438	 -0.14532	  1.15508	 -0.05037	  1.23952	703.92603	 23.60	
 20.009	-121.926	  0.99460	  0.08066	  0.83275	 -0.09465	  1.08490	 -0.05344	  1.23947	703.87903	 23.60	
 19.995	-133.545	  0.99150	 -0.01127	  0.95323	 -0.02283	  0.98577	 -0.05559	  1.23481	703.96600	 23.60	
 20.000	-145.147	  0.99569	 -0.08401	  1.06060	  0.07064	  0.86996	 -0.05628	  1.24020	703.94397	 23.60	
 20.008	-156.764	  0.98872	 -0.13531	  1.12765	  0.17944	  0.73059	 -0.05446	  1.23193	703.97101	 23.60	
 20.003	-168.362	  0.99822	 -0.16550	  1.18219	  0.30879	  0.59477	 -0.05377	  1.24263	703.87097	 23.60	
 20.000	180.000	  0.99540	 -0.17605	  1.19253	  0.44534	  0.44978	 -0.05622	  1.23783	703.96600	 23.60	
