FileType=PCF
NHL=14
Date=03/12/19	12:49:31
Facility=APL
Serial=16071-11
Customer=NASA
NP=6
Mach=0.080000
Calibration=1:1
CalPts=490
TstPts=95
PortNumbering=AP Standard
Units=Torr C m/s kg/m^3 deg mm 
Theta[deg]	Phi[deg]	P1[Torr]	P2[Torr]	P3[Torr]	P4[Torr]	P5[Torr]	P6[Torr]	Pt[Torr]	Ps[Abs,Torr]	Ts[C]	
  0.000	  0.000	  3.15228	  1.38525	  1.37514	  1.37846	  1.35940	  0.06658	  3.14322	712.28998	 24.50	
  1.691	128.401	  3.15203	  1.28658	  1.44981	  1.47789	  1.24092	  0.05881	  3.14352	712.03998	 24.50	
  1.692	 77.194	  3.14885	  1.40045	  1.32394	  1.50155	  1.20834	  0.06576	  3.14071	712.40002	 24.50	
  1.699	 26.182	  3.14790	  1.50227	  1.22999	  1.42469	  1.27425	  0.06886	  3.14017	712.38000	 24.50	
  1.699	-26.182	  3.15190	  1.49860	  1.24083	  1.28882	  1.40932	  0.06328	  3.14353	712.33002	 24.50	
  1.692	-77.194	  3.15252	  1.39342	  1.34433	  1.22524	  1.49742	  0.06219	  3.14293	711.59998	 24.50	
  1.691	-128.401	  3.15034	  1.29516	  1.45937	  1.25983	  1.46740	  0.05802	  3.14157	712.26001	 24.50	
  1.700	180.000	  3.14833	  1.24068	  1.49964	  1.35501	  1.35365	  0.05747	  3.13848	712.28003	 24.50	
  3.400	180.000	  3.14629	  1.06634	  1.66564	  1.33840	  1.32944	  0.04345	  3.14024	712.20001	 24.50	
  3.388	-152.325	  3.14650	  1.10330	  1.62371	  1.20314	  1.46998	  0.04281	  3.14056	712.34003	 24.50	
  3.397	-124.529	  3.14739	  1.19395	  1.51817	  1.10365	  1.58594	  0.04242	  3.14134	712.29999	 24.50	
  3.399	-96.763	  3.14868	  1.32577	  1.37264	  1.05615	  1.64383	  0.04484	  3.14210	712.28998	 24.50	
  3.394	-69.283	  3.14716	  1.47306	  1.23146	  1.06531	  1.63076	  0.05121	  3.14174	712.26001	 24.50	
  3.400	-41.398	  3.14552	  1.60103	  1.11745	  1.13978	  1.53396	  0.05466	  3.14148	712.21997	 24.50	
  3.401	-14.021	  3.14495	  1.67742	  1.04986	  1.26383	  1.39584	  0.05796	  3.14240	712.28998	 24.50	
  3.401	 14.021	  3.14234	  1.67473	  1.04624	  1.41648	  1.24379	  0.06195	  3.14068	712.34003	 24.50	
  3.400	 41.398	  3.14041	  1.59643	  1.10808	  1.55724	  1.11889	  0.06162	  3.13906	712.32001	 24.50	
  3.394	 69.283	  3.14278	  1.46302	  1.22713	  1.65401	  1.04088	  0.05863	  3.14287	712.29999	 24.50	
  3.399	 96.763	  3.14300	  1.31048	  1.37742	  1.67738	  1.02435	  0.05477	  3.14269	712.40002	 24.50	
  3.397	124.529	  3.14316	  1.17685	  1.51931	  1.61993	  1.07460	  0.04916	  3.14032	712.34998	 24.50	
  3.388	152.325	  3.14464	  1.09528	  1.62186	  1.48876	  1.18956	  0.04634	  3.14017	712.34998	 24.50	
  5.099	161.165	  3.12861	  0.90149	  1.79480	  1.47395	  1.15091	  0.02606	  3.13854	712.28003	 24.50	
  5.109	142.013	  3.12713	  0.96175	  1.71485	  1.62934	  1.01304	  0.03077	  3.13915	712.37000	 24.50	
  5.095	123.033	  3.12842	  1.06519	  1.58779	  1.75382	  0.90624	  0.03367	  3.14286	711.53003	 24.50	
  5.105	104.191	  3.12643	  1.20449	  1.43485	  1.82553	  0.84859	  0.03728	  3.14239	712.35999	 24.50	
  5.093	 85.207	  3.12728	  1.36622	  1.27368	  1.84225	  0.83864	  0.04296	  3.14480	711.63000	 24.40	
  5.104	 66.290	  3.12312	  1.52763	  1.11997	  1.79818	  0.87231	  0.04827	  3.14109	712.34003	 24.40	
  5.094	 47.331	  3.12422	  1.67291	  0.99554	  1.69846	  0.95504	  0.05148	  3.13966	711.71997	 24.40	
  5.089	 28.397	  3.12726	  1.78359	  0.90726	  1.56104	  1.07501	  0.05142	  3.14367	711.96002	 24.40	
  5.096	  9.576	  3.12444	  1.84001	  0.86410	  1.40080	  1.21989	  0.05063	  3.13857	711.51001	 24.40	
  5.096	 -9.576	  3.12833	  1.84353	  0.86610	  1.24193	  1.37663	  0.04824	  3.14095	712.31000	 24.40	
  5.089	-28.397	  3.12984	  1.78548	  0.91320	  1.09335	  1.53370	  0.04258	  3.14123	712.08002	 24.40	
  5.094	-47.331	  3.13021	  1.68300	  0.99708	  0.97759	  1.66931	  0.03671	  3.13994	712.28998	 24.40	
  5.104	-66.290	  3.13288	  1.54185	  1.12043	  0.90150	  1.76592	  0.03131	  3.14119	712.25000	 24.40	
  5.093	-85.207	  3.13398	  1.38128	  1.27200	  0.87268	  1.80591	  0.02699	  3.14038	712.28003	 24.40	
  5.105	-104.191	  3.13574	  1.22220	  1.43149	  0.88188	  1.79333	  0.02381	  3.14042	712.34998	 24.40	
  5.095	-123.033	  3.13843	  1.08550	  1.58759	  0.93858	  1.72532	  0.02275	  3.14352	712.33002	 24.40	
  5.109	-142.013	  3.13377	  0.97713	  1.71184	  1.03344	  1.60734	  0.02230	  3.13860	712.26001	 24.40	
  5.099	-161.165	  3.13520	  0.91246	  1.79726	  1.16675	  1.45984	  0.02415	  3.14147	712.34003	 24.40	
  5.100	180.000	  3.13399	  0.88753	  1.82445	  1.31612	  1.30730	  0.02308	  3.14005	712.29999	 24.40	
  6.800	180.000	  3.10831	  0.69973	  1.98346	  1.28432	  1.27430	  0.00138	  3.14030	712.29999	 24.40	
  6.796	-166.229	  3.10913	  0.71818	  1.96041	  1.13272	  1.42974	 -0.00079	  3.13876	712.28998	 24.40	
  6.808	-152.311	  3.11266	  0.76947	  1.89936	  0.99254	  1.58774	 -0.00089	  3.14031	712.28003	 24.40	
  6.795	-138.383	  3.11179	  0.84758	  1.79868	  0.87331	  1.72501	 -0.00053	  3.13944	712.34998	 24.40	
  6.792	-124.591	  3.11366	  0.95220	  1.67178	  0.78227	  1.83852	 -0.00146	  3.14025	712.35999	 24.40	
  6.787	-110.754	  3.11308	  1.08390	  1.52216	  0.71922	  1.91948	 -0.00201	  3.13984	712.27002	 24.40	
  6.800	-96.985	  3.11122	  1.23208	  1.36182	  0.68417	  1.96378	  0.00050	  3.14021	712.19000	 24.40	
  6.800	-83.015	  3.10891	  1.39162	  1.20314	  0.68347	  1.96385	  0.00511	  3.13926	711.98999	 24.40	
  6.787	-69.246	  3.10861	  1.55037	  1.05678	  0.71934	  1.91870	  0.00763	  3.14061	712.29999	 24.40	
  6.792	-55.409	  3.10476	  1.69985	  0.92628	  0.78342	  1.83633	  0.01419	  3.13745	712.38000	 24.40	
  6.795	-41.617	  3.10077	  1.82434	  0.82014	  0.87136	  1.72276	  0.01692	  3.13741	712.33002	 24.40	
  6.808	-27.689	  3.10062	  1.92659	  0.73557	  0.99167	  1.58352	  0.02227	  3.14041	712.29999	 24.40	
  6.796	-13.771	  3.09804	  1.98845	  0.68627	  1.13862	  1.42333	  0.02958	  3.13940	712.28003	 24.40	
  6.800	  0.000	  3.09657	  2.00532	  0.67045	  1.29515	  1.26346	  0.03200	  3.13986	712.41998	 24.30	
  6.796	 13.771	  3.09730	  1.98213	  0.68813	  1.45481	  1.11364	  0.03330	  3.14200	712.38000	 24.30	
  6.808	 27.689	  3.09348	  1.91787	  0.73414	  1.61475	  0.96774	  0.03593	  3.14021	712.28998	 24.30	
  6.795	 41.617	  3.09023	  1.81550	  0.81381	  1.75598	  0.84752	  0.03515	  3.13848	712.34003	 24.30	
  6.792	 55.409	  3.09335	  1.68604	  0.92244	  1.86925	  0.75559	  0.03043	  3.13958	712.35999	 24.30	
  6.787	 69.246	  3.09256	  1.53195	  1.05457	  1.95155	  0.68733	  0.02580	  3.14041	712.28998	 24.30	
  6.800	 83.015	  3.09268	  1.37289	  1.20330	  1.99515	  0.65338	  0.02594	  3.14042	712.28998	 24.30	
  6.800	 96.985	  3.09492	  1.21282	  1.36374	  1.99507	  0.65376	  0.01966	  3.14154	712.39001	 24.30	
  6.787	110.754	  3.09530	  1.06371	  1.52195	  1.94740	  0.69073	  0.01729	  3.13872	712.45001	 24.30	
  6.792	124.591	  3.09879	  0.93160	  1.67230	  1.86600	  0.75511	  0.01564	  3.14006	712.34003	 24.30	
  6.795	138.383	  3.10019	  0.82599	  1.80039	  1.74819	  0.85053	  0.00972	  3.14006	712.37000	 24.30	
  6.808	152.311	  3.10316	  0.74916	  1.90214	  1.60363	  0.97544	  0.00317	  3.13972	712.28998	 24.30	
  6.796	166.229	  3.10312	  0.70742	  1.96140	  1.44182	  1.12136	  0.00232	  3.13815	712.29999	 24.30	
  8.491	168.704	  3.07058	  0.51861	  2.11785	  1.40961	  1.07891	 -0.02544	  3.14158	712.21002	 24.30	
  8.502	157.493	  3.06624	  0.55265	  2.06486	  1.57386	  0.92800	 -0.02416	  3.14019	712.21002	 24.30	
  8.494	146.194	  3.06238	  0.61607	  1.97568	  1.73379	  0.79103	 -0.02011	  3.13974	712.26001	 24.30	
  8.495	135.039	  3.06025	  0.70180	  1.86486	  1.86979	  0.67918	 -0.01428	  3.13769	712.29999	 24.30	
  8.487	123.723	  3.06092	  0.81486	  1.72775	  1.99056	  0.58572	 -0.01052	  3.14177	712.39001	 24.30	
  8.492	112.575	  3.05569	  0.94255	  1.57714	  2.07665	  0.51832	 -0.01083	  3.14076	712.28998	 24.30	
  8.510	101.220	  3.05160	  1.09365	  1.40927	  2.13276	  0.47498	 -0.00888	  3.13987	711.59003	 24.30	
  8.500	 90.000	  3.04885	  1.25170	  1.24674	  2.15011	  0.46268	 -0.00459	  3.13958	711.79999	 24.30	
  8.510	 78.780	  3.04559	  1.41525	  1.08682	  2.13339	  0.47355	  0.00155	  3.13593	712.21002	 24.30	
  8.492	 67.425	  3.04932	  1.58460	  0.93708	  2.08056	  0.51865	  0.00282	  3.14178	712.31000	 24.30	
  8.487	 56.277	  3.04747	  1.73766	  0.80438	  1.99386	  0.58403	  0.00486	  3.13896	712.21997	 24.30	
  8.495	 44.961	  3.04872	  1.87576	  0.68845	  1.87860	  0.67328	  0.00888	  3.13983	712.27002	 24.30	
  8.494	 33.806	  3.04617	  1.98898	  0.59974	  1.74578	  0.78165	  0.01360	  3.13739	712.25000	 24.30	
  8.502	 22.507	  3.05041	  2.07889	  0.53452	  1.58914	  0.91901	  0.01341	  3.13865	712.29999	 24.30	
  8.491	 11.296	  3.05371	  2.13458	  0.49465	  1.42431	  1.06793	  0.01003	  3.14155	712.28998	 24.30	
  8.500	  0.000	  3.05337	  2.15303	  0.48306	  1.26013	  1.22480	  0.00894	  3.13852	712.37000	 24.30	
  8.491	-11.296	  3.05568	  2.13750	  0.49647	  1.09690	  1.39031	  0.00590	  3.13751	712.38000	 24.30	
  8.502	-22.507	  3.05832	  2.08888	  0.53478	  0.94462	  1.55480	 -0.00100	  3.13979	712.26001	 24.30	
  8.494	-33.806	  3.06065	  2.00470	  0.60130	  0.81256	  1.70829	 -0.00845	  3.13857	712.31000	 24.30	
  8.495	-44.961	  3.06154	  1.89134	  0.69163	  0.70195	  1.84148	 -0.01164	  3.13716	712.31000	 24.20	
  8.487	-56.277	  3.06763	  1.75450	  0.80775	  0.61152	  1.95988	 -0.01388	  3.13877	712.33002	 24.30	
  8.492	-67.425	  3.06774	  1.60335	  0.93608	  0.54440	  2.04568	 -0.01995	  3.13728	712.32001	 24.30	
  8.510	-78.780	  3.06921	  1.44102	  1.08431	  0.50105	  2.10344	 -0.02408	  3.13779	712.13000	 24.20	
  8.500	-90.000	  3.07396	  1.27618	  1.24383	  0.48810	  2.12449	 -0.02488	  3.14130	712.22998	 24.20	
  8.510	-101.220	  3.07317	  1.11725	  1.40672	  0.50102	  2.10519	 -0.02584	  3.13727	712.20001	 24.20	
  8.492	-112.575	  3.07659	  0.96381	  1.57368	  0.54250	  2.05075	 -0.02805	  3.14002	712.34003	 24.20	
  8.487	-123.723	  3.07901	  0.83785	  1.72488	  0.60890	  1.96596	 -0.02892	  3.14044	712.28998	 24.20	
  8.495	-135.039	  3.07830	  0.72362	  1.86199	  0.69628	  1.85184	 -0.02757	  3.14025	712.17999	 24.20	
  8.494	-146.194	  3.07773	  0.63486	  1.97566	  0.80587	  1.71801	 -0.02581	  3.14023	712.27002	 24.20	
  8.502	-157.493	  3.07585	  0.56682	  2.06331	  0.93819	  1.56487	 -0.02747	  3.13973	712.27002	 24.20	
  8.491	-168.704	  3.07492	  0.52752	  2.11398	  1.08820	  1.40187	 -0.02812	  3.13995	712.25000	 24.20	
  8.500	180.000	  3.07259	  0.51016	  2.13541	  1.24854	  1.23798	 -0.02544	  3.14095	712.15997	 24.20	
 10.200	180.000	  3.02591	  0.32428	  2.27634	  1.20331	  1.19174	 -0.05325	  3.14028	712.34998	 24.20	
 10.191	-170.497	  3.03045	  0.33935	  2.26029	  1.04125	  1.36047	 -0.05569	  3.14235	712.23999	 24.20	
 10.210	-161.034	  3.02921	  0.37208	  2.21316	  0.88481	  1.52698	 -0.05416	  3.13913	712.21002	 24.20	
 10.194	-151.526	  3.03359	  0.42840	  2.14021	  0.74739	  1.68766	 -0.05139	  3.14109	712.20001	 24.20	
 10.190	-142.105	  3.03233	  0.50489	  2.03678	  0.62647	  1.83468	 -0.04903	  3.13948	712.21002	 24.20	
 10.215	-132.646	  3.03319	  0.59809	  1.91576	  0.51670	  1.97182	 -0.05387	  3.14113	712.16998	 24.20	
 10.203	-123.092	  3.03145	  0.71424	  1.77123	  0.42886	  2.08718	 -0.05556	  3.14135	712.08002	 24.20	
 10.192	-113.678	  3.03095	  0.84541	  1.61544	  0.36562	  2.17313	 -0.05617	  3.14219	712.21002	 24.20	
 10.208	-104.249	  3.02859	  0.99194	  1.45148	  0.32329	  2.23394	 -0.05208	  3.14223	712.25000	 24.20	
 10.210	-94.801	  3.02743	  1.15038	  1.28427	  0.30242	  2.26313	 -0.04968	  3.14111	712.21002	 24.20	
 10.210	-85.199	  3.02309	  1.31640	  1.11746	  0.30372	  2.26057	 -0.05051	  3.13870	712.28998	 24.20	
 10.208	-75.751	  3.02113	  1.48407	  0.96089	  0.32538	  2.22992	 -0.05056	  3.13972	712.22998	 24.20	
 10.192	-66.322	  3.01902	  1.64675	  0.81487	  0.36812	  2.16811	 -0.04729	  3.13866	712.31000	 24.20	
 10.203	-56.908	  3.01668	  1.80311	  0.68191	  0.43338	  2.08048	 -0.04423	  3.14005	712.35999	 24.20	
 10.215	-47.354	  3.01352	  1.94431	  0.56694	  0.52133	  1.96559	 -0.03929	  3.14017	712.37000	 24.20	
 10.190	-37.895	  3.01157	  2.06666	  0.47257	  0.63322	  1.82699	 -0.03720	  3.13943	712.38000	 24.20	
 10.194	-28.474	  3.00617	  2.16600	  0.39454	  0.75356	  1.67875	 -0.03218	  3.13725	712.28003	 24.20	
 10.210	-18.966	  3.00438	  2.23993	  0.33732	  0.89310	  1.51809	 -0.02731	  3.13880	712.29999	 24.20	
 10.191	 -9.503	  3.00330	  2.28301	  0.30674	  1.05325	  1.34924	 -0.02087	  3.13975	712.21997	 24.20	
 10.200	  0.000	  2.99868	  2.29460	  0.29393	  1.21552	  1.18056	 -0.01789	  3.13838	712.23999	 24.20	
 10.191	  9.503	  2.99992	  2.27841	  0.30584	  1.38407	  1.02278	 -0.01728	  3.14144	712.03998	 24.20	
 10.210	 18.966	  2.99537	  2.23049	  0.33593	  1.55149	  0.86776	 -0.01366	  3.13984	711.91998	 24.20	
 10.194	 28.474	  2.99635	  2.15403	  0.39387	  1.71550	  0.72842	 -0.00954	  3.14117	712.31000	 24.20	
 10.190	 37.895	  2.99393	  2.05088	  0.47014	  1.86244	  0.60693	 -0.01083	  3.13960	712.14001	 24.20	
 10.215	 47.354	  2.99188	  1.92502	  0.56597	  1.99763	  0.49764	 -0.01854	  3.13925	712.21002	 24.10	
 10.203	 56.908	  2.99096	  1.78002	  0.68331	  2.11347	  0.41089	 -0.02349	  3.13918	712.21997	 24.20	
 10.192	 66.322	  2.99254	  1.62337	  0.81644	  2.19955	  0.34830	 -0.02524	  3.13918	712.28003	 24.10	
 10.208	 75.751	  2.99385	  1.45758	  0.96289	  2.26330	  0.30110	 -0.02643	  3.14092	712.31000	 24.10	
 10.210	 85.199	  2.99378	  1.28962	  1.11888	  2.29194	  0.27830	 -0.02943	  3.13995	712.23999	 24.10	
 10.210	 94.801	  2.99560	  1.12252	  1.28505	  2.29043	  0.27928	 -0.03577	  3.13973	712.28003	 24.10	
 10.208	104.249	  2.99797	  0.96453	  1.45351	  2.25900	  0.30057	 -0.03852	  3.14003	712.32001	 24.10	
 10.192	113.678	  3.00243	  0.82022	  1.61812	  2.19498	  0.34876	 -0.03827	  3.13968	712.29999	 24.10	
 10.203	123.092	  3.00542	  0.69015	  1.77271	  2.10595	  0.41452	 -0.03893	  3.14005	712.27002	 24.10	
 10.215	132.646	  3.00835	  0.57668	  1.91603	  1.99135	  0.50344	 -0.04126	  3.14032	712.26001	 24.10	
 10.190	142.105	  3.01294	  0.48326	  2.03935	  1.85256	  0.61237	 -0.04724	  3.14115	712.34998	 24.10	
 10.194	151.526	  3.01396	  0.40895	  2.13956	  1.70320	  0.73442	 -0.04920	  3.14044	712.39001	 24.10	
 10.210	161.034	  3.01999	  0.35975	  2.21635	  1.53972	  0.87733	 -0.04946	  3.14106	712.47998	 24.10	
 10.191	170.497	  3.02130	  0.33276	  2.25918	  1.36963	  1.03383	 -0.05022	  3.13895	712.45001	 24.10	
 11.899	171.783	  2.96249	  0.14914	  2.39154	  1.31849	  0.98010	 -0.07712	  3.13835	712.41998	 24.10	
 11.890	163.610	  2.95733	  0.17381	  2.35009	  1.48759	  0.82371	 -0.07691	  3.13762	712.42999	 24.10	
 11.889	155.445	  2.95548	  0.21524	  2.28736	  1.65521	  0.67906	 -0.07959	  3.13872	712.39001	 24.10	
 11.909	147.299	  2.95190	  0.27208	  2.19936	  1.81225	  0.54801	 -0.08116	  3.13916	712.40997	 24.10	
 11.902	139.148	  2.94942	  0.34914	  2.08994	  1.96220	  0.42928	 -0.07608	  3.13967	712.46997	 24.10	
 11.894	130.867	  2.94309	  0.44901	  1.95445	  2.09535	  0.32825	 -0.07230	  3.13809	712.42999	 24.10	
 11.897	122.732	  2.94238	  0.56244	  1.81015	  2.21091	  0.24471	 -0.06985	  3.14070	712.45001	 24.10	
 11.903	114.597	  2.93960	  0.69113	  1.65522	  2.30068	  0.18173	 -0.06973	  3.13952	712.41998	 24.10	
 11.893	106.346	  2.93651	  0.83688	  1.48851	  2.36761	  0.13654	 -0.07008	  3.13967	712.32001	 24.10	
 11.892	 98.155	  2.93161	  0.99071	  1.31915	  2.40822	  0.11018	 -0.06696	  3.13922	712.32001	 24.10	
 11.900	 90.000	  2.93063	  1.15183	  1.15273	  2.42582	  0.09600	 -0.06432	  3.14024	712.40002	 24.10	
 11.892	 81.845	  2.92767	  1.31734	  0.99231	  2.41266	  0.10568	 -0.05969	  3.13816	712.37000	 24.10	
 11.893	 73.654	  2.92652	  1.48913	  0.83463	  2.37201	  0.13378	 -0.05872	  3.13902	712.29999	 24.10	
 11.903	 65.403	  2.92487	  1.65633	  0.68875	  2.30796	  0.17895	 -0.05949	  3.13944	712.34003	 24.10	
 11.897	 57.268	  2.92579	  1.81191	  0.56097	  2.21907	  0.24234	 -0.05534	  3.14035	712.29999	 24.10	
 11.894	 49.133	  2.92333	  1.95954	  0.44342	  2.10717	  0.32325	 -0.05077	  3.13816	712.29999	 24.10	
 11.902	 40.852	  2.92637	  2.09553	  0.34163	  1.97459	  0.42503	 -0.04361	  3.13951	712.39001	 24.10	
 11.909	 32.701	  2.92680	  2.20750	  0.25978	  1.82626	  0.54074	 -0.03824	  3.13745	712.34998	 24.10	
 11.889	 24.555	  2.92963	  2.29866	  0.19710	  1.66813	  0.67204	 -0.04095	  3.13972	712.46002	 24.10	
 11.890	 16.390	  2.93193	  2.36642	  0.15047	  1.50460	  0.81490	 -0.04364	  3.14026	712.32001	 24.10	
 11.899	  8.217	  2.93393	  2.40973	  0.12275	  1.33406	  0.96954	 -0.04431	  3.14110	712.38000	 24.10	
 11.900	  0.000	  2.93632	  2.42534	  0.11375	  1.16608	  1.13219	 -0.04614	  3.14054	712.28998	 24.10	
 11.899	 -8.217	  2.93893	  2.41493	  0.12103	  1.00016	  1.30026	 -0.04909	  3.14081	712.39001	 24.10	
 11.890	-16.390	  2.94038	  2.37609	  0.15070	  0.84355	  1.46970	 -0.05351	  3.13939	712.34003	 24.10	
 11.889	-24.555	  2.94128	  2.31193	  0.19631	  0.69928	  1.63211	 -0.06040	  3.13759	712.21997	 24.10	
 11.909	-32.701	  2.94567	  2.22775	  0.25979	  0.56748	  1.79212	 -0.06553	  3.13924	712.28998	 24.10	
 11.902	-40.852	  2.94757	  2.11857	  0.33860	  0.44916	  1.93844	 -0.06697	  3.13942	712.21997	 24.10	
 11.894	-49.133	  2.94991	  1.98509	  0.43938	  0.34630	  2.07355	 -0.06864	  3.13780	712.28998	 24.10	
 11.897	-57.268	  2.95376	  1.83957	  0.55636	  0.26324	  2.18620	 -0.06908	  3.13863	712.35999	 24.10	
 11.903	-65.403	  2.95679	  1.68490	  0.68680	  0.20038	  2.27496	 -0.07158	  3.13768	712.33002	 24.10	
 11.893	-73.654	  2.95784	  1.51761	  0.83278	  0.15470	  2.34111	 -0.07248	  3.13690	712.41998	 24.10	
 11.892	-81.845	  2.96289	  1.34881	  0.98982	  0.12667	  2.38329	 -0.07214	  3.13848	712.34998	 24.10	
 11.900	-90.000	  2.96487	  1.18401	  1.14945	  0.11762	  2.39900	 -0.07132	  3.13902	712.33002	 24.10	
 11.892	-98.155	  2.96709	  1.02071	  1.31428	  0.12373	  2.38728	 -0.07157	  3.13955	712.32001	 24.10	
 11.893	-106.346	  2.96611	  0.86359	  1.48455	  0.15200	  2.34420	 -0.07165	  3.13684	712.38000	 24.10	
 11.903	-114.597	  2.96742	  0.71933	  1.65087	  0.19805	  2.27752	 -0.07438	  3.13627	712.21997	 24.10	
 11.897	-122.732	  2.97170	  0.59061	  1.80771	  0.26160	  2.19010	 -0.07709	  3.13753	712.13000	 24.10	
 11.894	-130.867	  2.97236	  0.47356	  1.95463	  0.34015	  2.07921	 -0.07695	  3.13937	712.29999	 24.10	
 11.902	-139.148	  2.97376	  0.37189	  2.08903	  0.44032	  1.94614	 -0.07352	  3.14073	712.29999	 24.10	
 11.909	-147.299	  2.97100	  0.29255	  2.19702	  0.55646	  1.79950	 -0.07513	  3.13657	712.29999	 24.00	
 11.889	-155.445	  2.97156	  0.23111	  2.28514	  0.68783	  1.64330	 -0.07896	  3.13771	712.41998	 24.10	
 11.890	-163.610	  2.96940	  0.18352	  2.35012	  0.83026	  1.47970	 -0.08238	  3.13751	712.35999	 24.10	
 11.899	-171.783	  2.96852	  0.15131	  2.39429	  0.98557	  1.31055	 -0.08246	  3.13965	712.34003	 24.00	
 11.900	180.000	  2.96587	  0.13977	  2.40647	  1.15139	  1.14019	 -0.08232	  3.14012	712.32001	 24.00	
 13.600	180.000	  2.89327	 -0.04002	  2.52805	  1.08868	  1.08325	 -0.10326	  3.13675	712.37000	 24.10	
 13.608	-172.853	  2.89701	 -0.03072	  2.51903	  0.92743	  1.24936	 -0.10390	  3.13865	712.41998	 24.00	
 13.611	-165.583	  2.89885	 -0.00583	  2.48209	  0.76736	  1.42192	 -0.10240	  3.13825	712.35999	 24.00	
 13.601	-158.353	  2.90616	  0.03503	  2.42578	  0.62372	  1.59070	 -0.10045	  3.14236	712.38000	 24.00	
 13.609	-151.210	  2.90360	  0.09118	  2.34387	  0.48867	  1.75158	 -0.09588	  3.14004	712.39001	 24.00	
 13.611	-143.999	  2.90498	  0.15944	  2.24274	  0.36247	  1.90829	 -0.09396	  3.14055	712.37000	 24.00	
 13.601	-136.825	  2.90456	  0.24740	  2.12089	  0.25709	  2.04858	 -0.09122	  3.13834	712.38000	 24.00	
 13.596	-129.640	  2.90498	  0.34790	  1.98686	  0.16903	  2.17571	 -0.08959	  3.13881	712.42999	 24.00	
 13.611	-122.431	  2.90622	  0.46298	  1.83858	  0.08956	  2.29224	 -0.08990	  3.14222	712.50000	 24.00	
 13.604	-115.211	  2.90114	  0.59160	  1.67600	  0.02499	  2.38172	 -0.08699	  3.13826	712.40997	 24.00	
 13.595	-108.042	  2.89748	  0.73039	  1.51093	 -0.02142	  2.45106	 -0.08722	  3.13894	712.50000	 24.00	
 13.607	-100.793	  2.89493	  0.88215	  1.33898	 -0.05289	  2.49821	 -0.08651	  3.13754	712.46997	 24.00	
 13.601	-93.617	  2.89492	  1.04372	  1.17104	 -0.06860	  2.52239	 -0.08680	  3.13951	712.40002	 24.00	
 13.601	-86.383	  2.89109	  1.20897	  1.00450	 -0.06801	  2.52178	 -0.08547	  3.13904	712.46002	 24.00	
 13.607	-79.207	  2.89131	  1.37958	  0.84771	 -0.05122	  2.49899	 -0.08844	  3.14114	712.42999	 24.00	
 13.595	-71.958	  2.88790	  1.54938	  0.69575	 -0.01951	  2.44950	 -0.08996	  3.14002	712.42999	 24.00	
 13.604	-64.789	  2.88337	  1.71244	  0.55637	  0.03001	  2.37634	 -0.08934	  3.13793	712.07001	 24.00	
 13.611	-57.569	  2.87992	  1.87114	  0.42749	  0.09373	  2.28315	 -0.08910	  3.13803	711.65997	 24.00	
 13.596	-50.360	  2.87724	  2.02028	  0.31185	  0.17603	  2.16857	 -0.08865	  3.13735	712.29999	 24.00	
 13.601	-43.175	  2.87489	  2.15486	  0.20934	  0.26359	  2.04451	 -0.08978	  3.14125	711.64001	 24.00	
 13.611	-36.001	  2.87236	  2.27196	  0.12633	  0.37508	  1.90008	 -0.09066	  3.14087	712.34003	 24.00	
 13.609	-28.790	  2.86865	  2.37048	  0.05418	  0.49757	  1.74416	 -0.09137	  3.14080	711.69000	 24.00	
 13.601	-21.647	  2.86688	  2.44775	  0.00182	  0.63431	  1.57965	 -0.08542	  3.13994	712.29999	 24.00	
 13.611	-14.417	  2.86289	  2.50595	 -0.03891	  0.78270	  1.41157	 -0.08290	  3.14025	711.65997	 24.00	
 13.608	 -7.147	  2.85693	  2.53565	 -0.06127	  0.94209	  1.23659	 -0.07731	  3.13593	712.40002	 24.00	
 13.600	  0.000	  2.85625	  2.54426	 -0.06609	  1.10649	  1.07193	 -0.07649	  3.13568	711.71997	 24.00	
 13.608	  7.147	  2.85173	  2.52945	 -0.06009	  1.27068	  0.91140	 -0.07483	  3.13474	712.12000	 24.00	
 13.611	 14.417	  2.85265	  2.49423	 -0.03544	  1.44656	  0.75363	 -0.07460	  3.13889	711.63000	 24.00	
 13.601	 21.647	  2.85101	  2.43187	  0.00437	  1.61448	  0.60971	 -0.07349	  3.13800	711.70001	 24.00	
 13.609	 28.790	  2.84897	  2.35074	  0.05807	  1.77600	  0.47572	 -0.07298	  3.13708	712.19000	 24.00	
 13.611	 36.001	  2.84940	  2.24849	  0.12898	  1.93514	  0.35299	 -0.07404	  3.14087	711.84003	 24.00	
 13.601	 43.175	  2.84626	  2.12509	  0.21679	  2.07598	  0.24794	 -0.07929	  3.13800	711.78003	 24.00	
 13.596	 50.360	  2.84537	  1.98848	  0.31637	  2.20163	  0.15603	 -0.08518	  3.13653	712.01001	 24.00	
 13.611	 57.569	  2.84690	  1.83716	  0.43399	  2.31497	  0.07822	 -0.09139	  3.13861	711.90002	 24.00	
 13.604	 64.789	  2.84644	  1.67609	  0.56561	  2.40511	  0.01649	 -0.09453	  3.13706	711.65997	 24.00	
 13.595	 71.958	  2.84672	  1.51085	  0.70339	  2.47371	 -0.02864	 -0.09401	  3.13807	711.64001	 24.00	
 13.607	 79.207	  2.84467	  1.33917	  0.85307	  2.52035	 -0.06329	 -0.09527	  3.13585	711.66998	 24.00	
 13.601	 86.383	  2.84894	  1.17045	  1.01259	  2.54435	 -0.07797	 -0.09865	  3.13777	711.78998	 24.00	
 13.601	 93.617	  2.85258	  1.00489	  1.17808	  2.54349	 -0.07959	 -0.10221	  3.13916	712.44000	 24.00	
 13.607	100.793	  2.85578	  0.84934	  1.34567	  2.51987	 -0.06285	 -0.10214	  3.13855	712.42999	 24.00	
 13.595	108.042	  2.86029	  0.69801	  1.51588	  2.47016	 -0.03063	 -0.10494	  3.13862	712.34998	 24.00	
 13.604	115.211	  2.86262	  0.56135	  1.67957	  2.39897	  0.01815	 -0.10202	  3.13890	711.59998	 24.00	
 13.611	122.431	  2.86712	  0.43180	  1.83960	  2.30441	  0.08002	 -0.10267	  3.13919	712.46997	 24.00	
 13.596	129.640	  2.87181	  0.32011	  1.98762	  2.19313	  0.15947	 -0.10403	  3.14014	712.46002	 24.00	
 13.601	136.825	  2.87295	  0.22330	  2.12087	  2.06238	  0.25231	 -0.10726	  3.13682	712.53998	 24.00	
 13.611	143.999	  2.87685	  0.13827	  2.24011	  1.91933	  0.35888	 -0.11166	  3.13814	712.44000	 24.00	
 13.609	151.210	  2.88181	  0.07507	  2.34252	  1.76119	  0.48714	 -0.11250	  3.13754	712.42999	 24.00	
 13.601	158.353	  2.88392	  0.02102	  2.42250	  1.59745	  0.61731	 -0.10836	  3.13849	712.53003	 24.00	
 13.611	165.583	  2.88770	 -0.01601	  2.48272	  1.42889	  0.76364	 -0.10482	  3.13896	712.35999	 24.00	
 13.608	172.853	  2.89105	 -0.03675	  2.51900	  1.25412	  0.92406	 -0.10484	  3.13944	712.38000	 24.00	
 15.298	173.587	  2.80686	 -0.21033	  2.62690	  1.18595	  0.85639	 -0.12792	  3.13427	712.06000	 24.00	
 15.291	167.167	  2.80704	 -0.19109	  2.59800	  1.35892	  0.70260	 -0.13162	  3.13768	711.78998	 24.00	
 15.307	160.676	  2.80201	 -0.16173	  2.54442	  1.52922	  0.55392	 -0.13671	  3.13719	712.12000	 24.00	
 15.300	154.261	  2.79947	 -0.11677	  2.47184	  1.69240	  0.42156	 -0.14149	  3.13671	712.34998	 24.00	
 15.288	147.854	  2.79735	 -0.05879	  2.38121	  1.85626	  0.29520	 -0.14442	  3.13904	712.38000	 24.00	
 15.293	141.428	  2.79231	  0.00980	  2.26889	  2.01000	  0.17616	 -0.14256	  3.13889	711.63000	 24.00	
 15.299	134.985	  2.78625	  0.09618	  2.14215	  2.14688	  0.07919	 -0.13926	  3.13586	712.38000	 24.00	
 15.305	128.583	  2.78563	  0.19199	  2.00651	  2.27853	 -0.00858	 -0.13850	  3.13969	712.38000	 24.00	
 15.309	122.142	  2.77815	  0.30144	  1.85662	  2.38917	 -0.08316	 -0.13610	  3.13582	712.27002	 24.00	
 15.304	115.711	  2.77720	  0.42696	  1.69719	  2.48533	 -0.14342	 -0.13864	  3.13862	712.44000	 24.00	
 15.297	109.291	  2.77482	  0.56249	  1.53404	  2.56144	 -0.19069	 -0.14238	  3.13981	712.33002	 24.00	
 15.293	102.897	  2.77119	  0.70589	  1.36969	  2.61449	 -0.22276	 -0.14157	  3.13918	712.40997	 24.00	
 15.293	 96.458	  2.76648	  0.86168	  1.19635	  2.64648	 -0.24247	 -0.14056	  3.13826	712.32001	 24.00	
 15.300	 90.000	  2.76352	  1.02519	  1.03171	  2.65731	 -0.24603	 -0.13921	  3.13699	712.39001	 24.00	
 15.293	 83.542	  2.76372	  1.18825	  0.87140	  2.64961	 -0.24215	 -0.13716	  3.13964	712.32001	 24.00	
 15.293	 77.103	  2.76027	  1.35729	  0.71573	  2.61565	 -0.22164	 -0.13490	  3.13824	712.51001	 24.00	
 15.297	 70.709	  2.75869	  1.52287	  0.57236	  2.56651	 -0.18973	 -0.13677	  3.13730	712.38000	 24.00	
 15.304	 64.289	  2.76051	  1.68673	  0.43750	  2.49707	 -0.14522	 -0.13579	  3.14083	712.37000	 23.90	
 15.309	 57.858	  2.75741	  1.85051	  0.30929	  2.40209	 -0.08261	 -0.13529	  3.13778	712.46002	 23.90	
 15.305	 51.417	  2.75593	  2.00479	  0.19077	  2.28943	 -0.01057	 -0.12759	  3.13633	712.38000	 24.00	
 15.299	 45.015	  2.76029	  2.14268	  0.09616	  2.16584	  0.07739	 -0.12084	  3.13818	712.25000	 23.90	
 15.293	 38.572	  2.75850	  2.26955	  0.00504	  2.02723	  0.17232	 -0.11553	  3.13753	712.37000	 23.90	
 15.288	 32.146	  2.76054	  2.38607	 -0.07061	  1.87540	  0.28752	 -0.10921	  3.13909	712.28003	 23.90	
 15.300	 25.739	  2.76129	  2.47906	 -0.13253	  1.71404	  0.41098	 -0.10638	  3.13798	712.34003	 23.90	
 15.307	 19.324	  2.76502	  2.55500	 -0.17619	  1.55059	  0.54684	 -0.10721	  3.13944	712.44000	 23.90	
 15.291	 12.833	  2.76611	  2.60977	 -0.21097	  1.38089	  0.69111	 -0.10749	  3.13904	712.37000	 23.90	
 15.298	  6.413	  2.76814	  2.64365	 -0.23260	  1.20830	  0.84879	 -0.10688	  3.13813	712.32001	 23.90	
 15.300	  0.000	  2.76963	  2.65588	 -0.23797	  1.04404	  1.00688	 -0.10450	  3.13867	712.33002	 23.90	
 15.298	 -6.413	  2.77330	  2.64805	 -0.23347	  0.87962	  1.17402	 -0.10701	  3.13805	712.33002	 23.90	
 15.291	-12.833	  2.77545	  2.61865	 -0.21489	  0.72182	  1.34287	 -0.10865	  3.13853	712.32001	 23.90	
 15.307	-19.324	  2.77498	  2.56575	 -0.18233	  0.57166	  1.51142	 -0.11045	  3.13433	712.39001	 23.90	
 15.300	-25.739	  2.77957	  2.49696	 -0.13431	  0.43463	  1.67784	 -0.10980	  3.13672	712.35999	 23.90	
 15.288	-32.146	  2.78323	  2.40635	 -0.07291	  0.30857	  1.83910	 -0.11010	  3.13703	712.35999	 23.90	
 15.293	-38.572	  2.78777	  2.30009	  0.00111	  0.19262	  1.99377	 -0.11027	  3.13843	712.32001	 23.90	
 15.299	-45.015	  2.78998	  2.17456	  0.08754	  0.09225	  2.13048	 -0.10548	  3.13641	712.27002	 23.90	
 15.305	-51.417	  2.79084	  2.03705	  0.18336	 -0.00037	  2.25820	 -0.10469	  3.13641	712.41998	 23.90	
 15.309	-57.858	  2.79512	  1.88746	  0.29542	 -0.07672	  2.37209	 -0.10080	  3.13874	712.31000	 23.90	
 15.304	-64.289	  2.79650	  1.72810	  0.42110	 -0.13754	  2.46536	 -0.10210	  3.13645	712.29999	 23.90	
 15.297	-70.709	  2.80016	  1.56390	  0.55766	 -0.18276	  2.53569	 -0.10082	  3.13557	712.29999	 23.90	
 15.293	-77.103	  2.80581	  1.39959	  0.70550	 -0.21504	  2.59253	 -0.09830	  3.13835	712.38000	 23.90	
 15.293	-83.542	  2.80793	  1.22737	  0.86191	 -0.23782	  2.62519	 -0.09395	  3.13840	712.28003	 23.90	
 15.300	-90.000	  2.81028	  1.06034	  1.02456	 -0.24404	  2.63659	 -0.09547	  3.13720	712.33002	 23.90	
 15.293	-96.458	  2.81002	  0.89515	  1.18933	 -0.23866	  2.62352	 -0.09236	  3.13417	712.26001	 23.90	
 15.293	-102.897	  2.81435	  0.73969	  1.36008	 -0.21941	  2.59319	 -0.09501	  3.13733	712.29999	 23.90	
 15.297	-109.291	  2.81564	  0.59578	  1.52573	 -0.18611	  2.54113	 -0.09588	  3.13514	712.27002	 23.90	
 15.304	-115.711	  2.81918	  0.45884	  1.69325	 -0.14132	  2.47094	 -0.09744	  3.13733	712.28003	 23.90	
 15.309	-122.142	  2.81941	  0.33237	  1.85266	 -0.08137	  2.37708	 -0.09782	  3.13704	712.27002	 23.90	
 15.305	-128.583	  2.82024	  0.21955	  2.00286	 -0.00799	  2.26556	 -0.10165	  3.13473	712.29999	 23.90	
 15.299	-134.985	  2.82282	  0.11986	  2.14190	  0.07902	  2.13997	 -0.09921	  3.13610	712.26001	 23.90	
 15.293	-141.428	  2.82141	  0.03217	  2.26817	  0.17756	  1.99949	 -0.10190	  3.13524	712.28998	 23.90	
 15.288	-147.854	  2.82163	 -0.04145	  2.37888	  0.29250	  1.84908	 -0.10551	  3.13592	712.38000	 23.90	
 15.300	-154.261	  2.82392	 -0.10142	  2.47614	  0.42110	  1.68888	 -0.11070	  3.13921	712.35999	 23.90	
 15.307	-160.676	  2.81923	 -0.14929	  2.54540	  0.55749	  1.52192	 -0.11554	  3.13596	712.42999	 23.90	
 15.291	-167.167	  2.81977	 -0.18019	  2.59715	  0.70633	  1.35701	 -0.12153	  3.13735	712.34003	 23.90	
 15.298	-173.587	  2.81477	 -0.20321	  2.62682	  0.86070	  1.18580	 -0.12113	  3.13512	712.34003	 23.90	
 15.300	180.000	  2.81462	 -0.21242	  2.64154	  1.02272	  1.02115	 -0.12443	  3.13900	712.32001	 23.90	
 17.000	180.000	  2.72279	 -0.37646	  2.73985	  0.95203	  0.95193	 -0.13759	  3.13542	712.34998	 23.90	
 16.990	-174.179	  2.72580	 -0.36872	  2.73178	  0.79418	  1.11697	 -0.13371	  3.13766	712.32001	 23.90	
 17.009	-168.383	  2.73038	 -0.35411	  2.70572	  0.63706	  1.28619	 -0.13197	  3.13930	712.26001	 23.90	
 17.000	-162.596	  2.73254	 -0.32361	  2.65893	  0.49223	  1.45289	 -0.13082	  3.13863	712.27002	 23.90	
 16.990	-156.759	  2.73645	 -0.28058	  2.59308	  0.35340	  1.62233	 -0.12132	  3.13903	712.25000	 23.90	
 16.995	-150.919	  2.73540	 -0.23066	  2.50587	  0.22268	  1.78427	 -0.11957	  3.13939	712.41998	 23.90	
 16.988	-145.161	  2.73464	 -0.16581	  2.40518	  0.10795	  1.93793	 -0.11494	  3.13682	712.34998	 23.90	
 17.014	-139.343	  2.73457	 -0.09287	  2.28890	 -0.00056	  2.08560	 -0.10753	  3.13683	712.39001	 23.90	
 17.007	-133.546	  2.73495	 -0.00575	  2.15902	 -0.09514	  2.22437	 -0.10432	  3.13825	712.35999	 23.90	
 17.001	-127.699	  2.73383	  0.09701	  2.01295	 -0.17300	  2.34822	 -0.10368	  3.13632	712.29999	 23.90	
 17.006	-121.937	  2.73242	  0.20515	  1.86441	 -0.24272	  2.45783	 -0.10093	  3.13886	711.84998	 23.90	
 17.002	-116.134	  2.73251	  0.33020	  1.70456	 -0.29859	  2.55136	 -0.10152	  3.14114	712.38000	 23.90	
 17.001	-110.310	  2.72687	  0.46155	  1.53580	 -0.34473	  2.62376	 -0.09754	  3.13670	712.37000	 23.90	
 16.988	-104.517	  2.72506	  0.60265	  1.37125	 -0.37742	  2.67983	 -0.09681	  3.13882	712.33002	 23.90	
 17.008	-98.662	  2.72108	  0.75363	  1.20029	 -0.40150	  2.71974	 -0.09757	  3.13913	712.34003	 23.90	
 16.996	-92.909	  2.71934	  0.91290	  1.03537	 -0.40869	  2.73577	 -0.09948	  3.13747	712.31000	 23.90	
 16.996	-87.091	  2.71719	  1.07492	  0.87248	 -0.40878	  2.73586	 -0.09855	  3.13845	712.29999	 23.90	
 17.012	-81.253	  2.71453	  1.24364	  0.71397	 -0.39915	  2.71889	 -0.10008	  3.14081	712.25000	 23.90	
 16.988	-75.483	  2.71260	  1.41127	  0.56692	 -0.37050	  2.67615	 -0.10796	  3.13797	712.39001	 23.90	
 17.001	-69.690	  2.70756	  1.57675	  0.42412	 -0.33666	  2.61854	 -0.10831	  3.13721	712.29999	 23.90	
 17.002	-63.866	  2.70280	  1.74022	  0.28977	 -0.29116	  2.54035	 -0.11090	  3.13660	712.16998	 23.90	
 17.006	-58.063	  2.69852	  1.89857	  0.16647	 -0.23525	  2.44860	 -0.11315	  3.13596	712.27002	 23.90	
 17.001	-52.301	  2.69580	  2.04786	  0.05618	 -0.16760	  2.33954	 -0.11461	  3.13610	712.28998	 23.90	
 17.007	-46.454	  2.69523	  2.18988	 -0.04016	 -0.08114	  2.21485	 -0.12005	  3.13867	712.21997	 23.90	
 17.014	-40.657	  2.69253	  2.32113	 -0.12686	  0.01401	  2.07805	 -0.12532	  3.13941	712.21002	 23.90	
 16.988	-34.839	  2.69044	  2.43419	 -0.19855	  0.12533	  1.92676	 -0.12585	  3.13773	712.32001	 23.90	
 16.995	-29.081	  2.68805	  2.53342	 -0.26368	  0.23760	  1.77336	 -0.12642	  3.14017	712.27002	 23.90	
 16.990	-23.241	  2.68097	  2.60981	 -0.31353	  0.36879	  1.60615	 -0.13163	  3.13494	712.27002	 23.90	
 17.000	-17.404	  2.68197	  2.67915	 -0.35293	  0.51094	  1.44063	 -0.13128	  3.14012	712.32001	 23.90	
 17.009	-11.617	  2.67857	  2.72212	 -0.37951	  0.65604	  1.27251	 -0.13115	  3.13834	712.37000	 23.90	
 16.990	 -5.821	  2.67741	  2.74403	 -0.38855	  0.81745	  1.10587	 -0.13191	  3.13607	712.26001	 23.90	
 17.000	  0.000	  2.67443	  2.75282	 -0.39527	  0.97641	  0.94146	 -0.13301	  3.13720	712.21997	 23.90	
 16.990	  5.821	  2.67242	  2.74128	 -0.38861	  1.14089	  0.78438	 -0.13641	  3.13679	712.16998	 23.90	
 17.009	 11.617	  2.66932	  2.71286	 -0.37631	  1.31030	  0.62644	 -0.14001	  3.13782	712.21997	 23.90	
 17.000	 17.404	  2.66870	  2.66394	 -0.34508	  1.47691	  0.48508	 -0.14138	  3.13941	712.25000	 23.90	
 16.990	 23.241	  2.66516	  2.59239	 -0.30364	  1.64164	  0.34917	 -0.14401	  3.13726	712.28003	 23.90	
 16.995	 29.081	  2.66289	  2.50516	 -0.25161	  1.80598	  0.22164	 -0.14685	  3.13640	712.25000	 23.90	
 16.988	 34.839	  2.66385	  2.40535	 -0.18726	  1.96265	  0.10870	 -0.15127	  3.13890	712.31000	 23.90	
 17.014	 40.657	  2.66115	  2.28742	 -0.11347	  2.10851	  0.00319	 -0.15656	  3.13810	712.37000	 23.90	
 17.007	 46.454	  2.65690	  2.15392	 -0.02312	  2.24421	 -0.08706	 -0.16277	  3.13530	712.40997	 23.90	
 17.001	 52.301	  2.66056	  2.01254	  0.07725	  2.37266	 -0.16878	 -0.16985	  3.13955	712.40002	 23.90	
 17.006	 58.063	  2.65870	  1.85978	  0.18779	  2.47943	 -0.23465	 -0.17577	  3.13838	712.40997	 23.90	
 17.002	 63.866	  2.65938	  1.69688	  0.30966	  2.56771	 -0.29124	 -0.17637	  3.13555	712.40002	 23.90	
 17.001	 69.690	  2.66215	  1.53219	  0.44308	  2.64616	 -0.33853	 -0.17794	  3.13969	712.39001	 23.90	
 16.988	 75.483	  2.66281	  1.36572	  0.58162	  2.70178	 -0.37269	 -0.17736	  3.13834	712.40002	 23.90	
 17.012	 81.253	  2.66304	  1.19887	  0.72941	  2.74019	 -0.39686	 -0.17883	  3.13978	712.34998	 23.90	
 16.996	 87.091	  2.66861	  1.03806	  0.88860	  2.75506	 -0.40075	 -0.18058	  3.13836	712.27002	 23.90	
 16.996	 92.909	  2.67179	  0.87831	  1.04736	  2.75563	 -0.40209	 -0.17949	  3.13960	712.33002	 23.80	
 17.008	 98.662	  2.67348	  0.72211	  1.21099	  2.73653	 -0.39215	 -0.18149	  3.13954	712.27002	 23.90	
 16.988	104.517	  2.67865	  0.57395	  1.38220	  2.69641	 -0.36654	 -0.18015	  3.13934	712.34003	 23.90	
 17.001	110.310	  2.67876	  0.43174	  1.54435	  2.63747	 -0.33697	 -0.17865	  3.13689	712.28003	 23.90	
 17.002	116.134	  2.68361	  0.30029	  1.71059	  2.56087	 -0.29094	 -0.17464	  3.13871	712.28998	 23.90	
 17.006	121.937	  2.68574	  0.18029	  1.86951	  2.46782	 -0.23562	 -0.17507	  3.13822	712.35999	 23.90	
 17.001	127.699	  2.68971	  0.07372	  2.01573	  2.35719	 -0.16532	 -0.17325	  3.13766	712.34003	 23.80	
 17.007	133.546	  2.69325	 -0.02348	  2.15764	  2.22909	 -0.08270	 -0.17283	  3.13626	712.40002	 23.80	
 17.014	139.343	  2.69718	 -0.11007	  2.28925	  2.09053	  0.00996	 -0.17185	  3.13645	712.40002	 23.80	
 16.988	145.161	  2.70192	 -0.18368	  2.40487	  1.94503	  0.11127	 -0.17094	  3.13798	712.34998	 23.80	
 16.995	150.919	  2.70588	 -0.24347	  2.50442	  1.78771	  0.22750	 -0.16756	  3.13880	712.32001	 23.80	
 16.990	156.759	  2.71221	 -0.29217	  2.59073	  1.62402	  0.35683	 -0.16516	  3.14013	712.35999	 23.90	
 17.000	162.596	  2.71594	 -0.33222	  2.65848	  1.45664	  0.49247	 -0.15988	  3.14108	712.29999	 23.80	
 17.009	168.383	  2.71684	 -0.35776	  2.70328	  1.28868	  0.63574	 -0.15269	  3.13873	712.28003	 23.80	
 16.990	174.179	  2.71970	 -0.37160	  2.72959	  1.11976	  0.79196	 -0.14800	  3.13666	712.23999	 23.90	
 18.709	174.675	  2.61742	 -0.53741	  2.82289	  1.04091	  0.71790	 -0.16275	  3.13659	712.22998	 23.80	
 18.703	169.441	  2.61248	 -0.52099	  2.79491	  1.20654	  0.56764	 -0.17075	  3.13475	712.19000	 23.80	
 18.691	164.085	  2.61222	 -0.50171	  2.75397	  1.37535	  0.42109	 -0.17839	  3.13907	712.19000	 23.80	
 18.706	158.818	  2.60792	 -0.47141	  2.69368	  1.53885	  0.28275	 -0.18112	  3.13738	712.20001	 23.80	
 18.695	153.537	  2.60557	 -0.42575	  2.61605	  1.70671	  0.15716	 -0.18973	  3.13764	712.21997	 23.80	
 18.704	148.255	  2.60222	 -0.37556	  2.52651	  1.86529	  0.03854	 -0.19634	  3.13956	712.21002	 23.80	
 18.698	142.952	  2.60065	 -0.30558	  2.41929	  2.01614	 -0.07241	 -0.19734	  3.13766	712.15002	 23.80	
 18.699	137.625	  2.59689	 -0.23450	  2.29900	  2.16445	 -0.17444	 -0.20065	  3.13939	712.19000	 23.80	
 18.705	132.343	  2.59295	 -0.15232	  2.16615	  2.29962	 -0.26241	 -0.20363	  3.13923	712.16998	 23.80	
 18.713	127.067	  2.58727	 -0.05651	  2.02273	  2.42191	 -0.33915	 -0.20548	  3.13776	712.32001	 23.80	
 18.700	121.794	  2.58293	  0.04645	  1.87025	  2.52866	 -0.40318	 -0.20926	  3.13647	712.28998	 23.80	
 18.698	116.504	  2.57830	  0.16053	  1.71346	  2.62217	 -0.45817	 -0.20968	  3.13596	712.13000	 23.80	
 18.707	111.165	  2.57563	  0.28868	  1.54878	  2.70509	 -0.50532	 -0.21470	  3.13679	712.15997	 23.80	
 18.690	105.863	  2.57328	  0.42745	  1.38541	  2.76692	 -0.53634	 -0.21607	  3.13930	712.21002	 23.80	
 18.696	100.583	  2.57016	  0.56994	  1.21994	  2.81236	 -0.56107	 -0.21777	  3.13902	712.14001	 23.80	
 18.700	 95.309	  2.56740	  0.71979	  1.05668	  2.84018	 -0.57703	 -0.21903	  3.14073	712.15002	 23.80	
 18.700	 90.000	  2.56185	  0.87541	  0.89374	  2.84697	 -0.58204	 -0.21739	  3.13737	712.03998	 23.80	
 18.700	 84.691	  2.55880	  1.03463	  0.73681	  2.84096	 -0.57820	 -0.21495	  3.13889	712.09003	 23.80	
 18.696	 79.417	  2.55658	  1.20080	  0.58540	  2.81458	 -0.56294	 -0.21243	  3.13671	712.15002	 23.80	
 18.690	 74.137	  2.55546	  1.36896	  0.43979	  2.77600	 -0.54094	 -0.21222	  3.14010	712.02002	 23.80	
 18.707	 68.835	  2.55280	  1.53246	  0.30405	  2.71589	 -0.50623	 -0.21116	  3.13862	712.13000	 23.80	
 18.698	 63.496	  2.55226	  1.70045	  0.17302	  2.63656	 -0.46180	 -0.21325	  3.13796	712.07001	 23.80	
 18.700	 58.206	  2.55420	  1.86086	  0.05588	  2.54379	 -0.40642	 -0.21157	  3.13902	712.14001	 23.80	
 18.713	 52.933	  2.54938	  2.01001	 -0.05106	  2.43588	 -0.34137	 -0.20805	  3.13507	711.97998	 23.80	
 18.705	 47.657	  2.55251	  2.15628	 -0.14839	  2.31741	 -0.26937	 -0.20208	  3.13873	712.10999	 23.80	
 18.699	 42.375	  2.55277	  2.29301	 -0.23682	  2.18175	 -0.18127	 -0.19776	  3.13730	712.09998	 23.80	
 18.698	 37.048	  2.55550	  2.41694	 -0.31399	  2.03612	 -0.08295	 -0.19111	  3.13818	712.09003	 23.80	
 18.704	 31.745	  2.55457	  2.52235	 -0.37695	  1.88479	  0.02213	 -0.18728	  3.13514	712.15002	 23.80	
 18.695	 26.463	  2.56098	  2.62062	 -0.43301	  1.72791	  0.14031	 -0.18305	  3.13856	712.10999	 23.80	
 18.706	 21.182	  2.56304	  2.70222	 -0.47788	  1.56337	  0.26917	 -0.17660	  3.13964	712.19000	 23.80	
 18.691	 15.915	  2.56288	  2.76210	 -0.51101	  1.39758	  0.40382	 -0.17121	  3.13783	712.08002	 23.80	
 18.703	 10.559	  2.56262	  2.80870	 -0.54116	  1.22807	  0.54517	 -0.16561	  3.13774	712.13000	 23.80	
 18.709	  5.325	  2.56405	  2.83773	 -0.55757	  1.06066	  0.69687	 -0.16364	  3.13744	712.06000	 23.80	
 18.700	  0.000	  2.56606	  2.84631	 -0.56294	  0.89729	  0.85338	 -0.15675	  3.13579	712.07001	 23.80	
 18.709	 -5.325	  2.57161	  2.84287	 -0.55758	  0.73863	  1.01936	 -0.15446	  3.13818	712.07001	 23.80	
 18.703	-10.559	  2.57085	  2.81885	 -0.54513	  0.58223	  1.18234	 -0.14626	  3.13550	712.15997	 23.80	
 18.691	-15.915	  2.57449	  2.77530	 -0.51682	  0.43812	  1.35050	 -0.14511	  3.13449	712.06000	 23.80	
 18.706	-21.182	  2.57970	  2.72160	 -0.48548	  0.30239	  1.51707	 -0.14007	  3.13636	712.10999	 23.80	
 18.695	-26.463	  2.58189	  2.64523	 -0.44161	  0.17040	  1.68272	 -0.13855	  3.13625	712.14001	 23.80	
 18.704	-31.745	  2.58315	  2.55628	 -0.38872	  0.05349	  1.84018	 -0.13408	  3.13648	712.29999	 23.80	
 18.698	-37.048	  2.58678	  2.45028	 -0.32310	 -0.05808	  1.99477	 -0.13159	  3.13619	712.26001	 23.80	
 18.699	-42.375	  2.58898	  2.32974	 -0.24525	 -0.15731	  2.14221	 -0.13094	  3.13579	712.13000	 23.80	
 18.705	-47.657	  2.59246	  2.19684	 -0.16205	 -0.24778	  2.27816	 -0.12574	  3.13638	712.07001	 23.80	
 18.713	-52.933	  2.59621	  2.05785	 -0.06350	 -0.32122	  2.39849	 -0.12297	  3.13686	712.15002	 23.80	
 18.700	-58.206	  2.60237	  1.90922	  0.04716	 -0.38347	  2.50888	 -0.11800	  3.13754	712.09003	 23.80	
 18.698	-63.496	  2.60605	  1.75066	  0.16137	 -0.44383	  2.60423	 -0.11182	  3.14013	712.06000	 23.80	
 18.707	-68.835	  2.60524	  1.58330	  0.28861	 -0.49108	  2.68129	 -0.10862	  3.13589	712.08002	 23.80	
 18.690	-74.137	  2.60891	  1.41780	  0.42964	 -0.52286	  2.73996	 -0.10853	  3.13486	711.96997	 23.80	
 18.696	-79.417	  2.61210	  1.25195	  0.57386	 -0.55013	  2.78627	 -0.10640	  3.13576	712.03003	 23.80	
 18.700	-84.691	  2.61382	  1.08408	  0.72562	 -0.56651	  2.81268	 -0.10451	  3.13509	712.03003	 23.80	
 18.700	-90.000	  2.61674	  0.92099	  0.88199	 -0.57245	  2.82108	 -0.10604	  3.13455	712.07001	 23.80	
 18.700	-95.309	  2.62108	  0.76349	  1.04567	 -0.56993	  2.81560	 -0.10274	  3.13739	712.09998	 23.80	
 18.696	-100.583	  2.62341	  0.60977	  1.21046	 -0.55566	  2.78843	 -0.10330	  3.13645	712.03003	 23.80	
 18.690	-105.863	  2.62650	  0.46997	  1.37613	 -0.52825	  2.74594	 -0.10143	  3.13579	712.03998	 23.80	
 18.707	-111.165	  2.63027	  0.33350	  1.54279	 -0.49605	  2.68913	 -0.10404	  3.13747	712.00000	 23.80	
 18.698	-116.504	  2.63213	  0.20037	  1.71048	 -0.45257	  2.60913	 -0.10251	  3.13623	711.96997	 23.80	
 18.700	-121.794	  2.63597	  0.08367	  1.86940	 -0.39664	  2.51584	 -0.10684	  3.13682	712.09003	 23.80	
 18.713	-127.067	  2.63747	 -0.02398	  2.02386	 -0.33046	  2.40743	 -0.10908	  3.13638	712.03998	 23.80	
 18.705	-132.343	  2.63543	 -0.12225	  2.16496	 -0.25853	  2.28843	 -0.11018	  3.13482	712.03003	 23.80	
 18.699	-137.625	  2.63814	 -0.20867	  2.29992	 -0.17164	  2.15386	 -0.11239	  3.13597	712.04999	 23.80	
 18.698	-142.952	  2.63990	 -0.28392	  2.42171	 -0.07148	  2.00957	 -0.11710	  3.13617	712.15002	 23.80	
 18.704	-148.255	  2.63897	 -0.35055	  2.52889	  0.03488	  1.85749	 -0.12182	  3.13806	712.09998	 23.80	
 18.695	-153.537	  2.63891	 -0.40510	  2.62109	  0.15548	  1.69961	 -0.12663	  3.13656	712.21002	 23.80	
 18.706	-158.818	  2.63434	 -0.44878	  2.69652	  0.28631	  1.53463	 -0.13554	  3.13395	712.08002	 23.80	
 18.691	-164.085	  2.63309	 -0.48696	  2.75558	  0.41979	  1.36805	 -0.13776	  3.13457	712.14001	 23.80	
 18.703	-169.441	  2.63142	 -0.51414	  2.80252	  0.56647	  1.20069	 -0.14029	  3.13867	712.15002	 23.80	
 18.709	-174.675	  2.62657	 -0.53195	  2.82636	  0.71614	  1.03267	 -0.14656	  3.13530	712.15002	 23.80	
 18.700	180.000	  2.62417	 -0.53723	  2.83490	  0.87791	  0.86792	 -0.14951	  3.13646	712.09003	 23.80	
 20.400	180.000	  2.51146	 -0.71139	  2.91427	  0.78787	  0.78439	 -0.15752	  3.13689	712.04999	 23.80	
 20.401	-175.153	  2.51680	 -0.70214	  2.90609	  0.63523	  0.94718	 -0.15170	  3.13626	712.10999	 23.80	
 20.407	-170.264	  2.52090	 -0.68961	  2.88485	  0.48198	  1.11399	 -0.14703	  3.13772	712.12000	 23.80	
 20.410	-165.423	  2.52316	 -0.66419	  2.84564	  0.34143	  1.27830	 -0.14082	  3.13727	712.08002	 23.80	
 20.392	-160.496	  2.52637	 -0.63244	  2.79019	  0.20020	  1.44748	 -0.13651	  3.13673	712.04999	 23.80	
 20.401	-155.705	  2.52599	 -0.59411	  2.72008	  0.07204	  1.60905	 -0.13117	  3.13629	712.15002	 23.80	
 20.405	-150.835	  2.52886	 -0.54254	  2.63433	 -0.04482	  1.77141	 -0.12641	  3.13624	712.15997	 23.80	
 20.397	-145.903	  2.52960	 -0.48143	  2.53242	 -0.15680	  1.93005	 -0.12168	  3.13652	712.08002	 23.80	
 20.392	-141.062	  2.52877	 -0.41609	  2.41982	 -0.25921	  2.07911	 -0.11842	  3.13627	712.13000	 23.80	
 20.396	-136.227	  2.52971	 -0.34170	  2.29745	 -0.34720	  2.21802	 -0.11125	  3.13676	712.13000	 23.80	
 20.408	-131.372	  2.52746	 -0.25519	  2.16274	 -0.42761	  2.34884	 -0.11131	  3.13675	712.09998	 23.80	
 20.410	-126.511	  2.52405	 -0.15739	  2.01273	 -0.49950	  2.46878	 -0.10738	  3.13501	712.15002	 23.80	
 20.400	-121.604	  2.52341	 -0.04903	  1.85796	 -0.56116	  2.57741	 -0.10308	  3.13570	712.17999	 23.80	
 20.403	-116.741	  2.51997	  0.06000	  1.70083	 -0.61716	  2.67140	 -0.10156	  3.13762	712.07001	 23.80	
 20.413	-111.900	  2.51560	  0.18543	  1.53596	 -0.66015	  2.74935	 -0.10153	  3.13584	712.19000	 23.80	
 20.398	-107.004	  2.51747	  0.31991	  1.37112	 -0.68977	  2.81077	 -0.10095	  3.13803	712.17999	 23.80	
 20.394	-102.132	  2.51265	  0.46230	  1.20624	 -0.71150	  2.85410	 -0.10427	  3.13401	712.23999	 23.80	
 20.403	-97.332	  2.51059	  0.60498	  1.04240	 -0.73136	  2.88762	 -0.10199	  3.13702	712.28003	 23.80	
 20.392	-92.440	  2.50786	  0.76110	  0.87990	 -0.73652	  2.90182	 -0.10639	  3.13527	712.16998	 23.80	
 20.392	-87.560	  2.50519	  0.92024	  0.72022	 -0.73672	  2.89998	 -0.10625	  3.13650	712.09998	 23.80	
 20.403	-82.668	  2.49917	  1.08235	  0.56264	 -0.73086	  2.88426	 -0.10704	  3.13483	712.06000	 23.80	
 20.394	-77.868	  2.49806	  1.24844	  0.41803	 -0.71152	  2.85295	 -0.10222	  3.13705	712.12000	 23.80	
 20.398	-72.996	  2.49333	  1.41349	  0.27567	 -0.68628	  2.80465	 -0.11028	  3.13565	712.20001	 23.80	
 20.413	-68.100	  2.48817	  1.57842	  0.14327	 -0.65415	  2.74300	 -0.11263	  3.13665	712.15002	 23.80	
 20.403	-63.259	  2.48504	  1.74061	  0.01758	 -0.60904	  2.66051	 -0.11305	  3.13568	712.14001	 23.80	
 20.400	-58.396	  2.48327	  1.89730	 -0.09521	 -0.55683	  2.56898	 -0.12440	  3.13728	712.15002	 23.80	
 20.410	-53.489	  2.47981	  2.04882	 -0.20014	 -0.49260	  2.45888	 -0.12387	  3.13589	712.15002	 23.80	
 20.408	-48.628	  2.47557	  2.19609	 -0.29951	 -0.42261	  2.33721	 -0.12498	  3.13794	712.16998	 23.80	
 20.396	-43.773	  2.47331	  2.33085	 -0.38534	 -0.33989	  2.20390	 -0.12928	  3.13841	712.15002	 23.80	
 20.392	-38.938	  2.46976	  2.45080	 -0.45969	 -0.24885	  2.06276	 -0.13041	  3.13761	712.25000	 23.80	
 20.397	-34.097	  2.46485	  2.55911	 -0.52673	 -0.14819	  1.90980	 -0.13733	  3.13445	712.15002	 23.80	
 20.405	-29.165	  2.46270	  2.66155	 -0.58603	 -0.03242	  1.75029	 -0.14316	  3.13638	712.17999	 23.80	
 20.401	-24.295	  2.45980	  2.74488	 -0.63183	  0.08584	  1.58941	 -0.14542	  3.13807	712.03998	 23.80	
 20.392	-19.504	  2.45926	  2.81338	 -0.67196	  0.21295	  1.42705	 -0.15049	  3.13987	712.15002	 23.80	
 20.410	-14.577	  2.45375	  2.86626	 -0.70603	  0.35184	  1.25320	 -0.15939	  3.13765	712.08002	 23.80	
 20.407	 -9.736	  2.44761	  2.89846	 -0.72670	  0.49711	  1.08552	 -0.16969	  3.13359	712.01001	 23.80	
 20.401	 -4.847	  2.44676	  2.92005	 -0.73647	  0.65441	  0.91707	 -0.16939	  3.13589	712.04999	 23.80	
 20.400	  0.000	  2.44876	  2.92689	 -0.73802	  0.81006	  0.76580	 -0.17722	  3.13745	712.07001	 23.80	
 20.401	  4.847	  2.44572	  2.91658	 -0.73105	  0.97055	  0.61161	 -0.17664	  3.13687	712.20001	 23.80	
 20.407	  9.736	  2.44266	  2.89034	 -0.72014	  1.13758	  0.45802	 -0.18753	  3.13724	712.14001	 23.80	
 20.410	 14.577	  2.44116	  2.84962	 -0.69616	  1.30256	  0.31600	 -0.19341	  3.13776	712.10999	 23.80	
 20.392	 19.504	  2.44133	  2.79130	 -0.66204	  1.46998	  0.18214	 -0.20067	  3.13777	712.13000	 23.80	
 20.401	 24.295	  2.43600	  2.71939	 -0.62810	  1.63260	  0.05206	 -0.20755	  3.13823	712.21002	 23.80	
 20.405	 29.165	  2.43235	  2.62795	 -0.57820	  1.79241	 -0.06782	 -0.21469	  3.13404	712.23999	 23.80	
 20.397	 34.097	  2.43529	  2.52767	 -0.51923	  1.95400	 -0.17614	 -0.21823	  3.13896	712.15002	 23.80	
 20.392	 38.938	  2.43168	  2.40825	 -0.45006	  2.10045	 -0.27597	 -0.22533	  3.13537	712.08002	 23.80	
 20.396	 43.773	  2.42911	  2.28325	 -0.37721	  2.24166	 -0.36856	 -0.22750	  3.13616	712.15002	 23.80	
 20.408	 48.628	  2.42718	  2.14711	 -0.29283	  2.37148	 -0.45079	 -0.23441	  3.13554	712.09003	 23.80	
 20.410	 53.489	  2.42837	  1.99974	 -0.19577	  2.49306	 -0.52125	 -0.23686	  3.13699	712.20001	 23.80	
 20.400	 58.396	  2.42916	  1.84365	 -0.08779	  2.60184	 -0.58352	 -0.24054	  3.13916	712.26001	 23.80	
 20.403	 63.259	  2.42901	  1.68301	  0.02818	  2.69337	 -0.63610	 -0.24219	  3.13594	712.17999	 23.80	
 20.413	 68.100	  2.42685	  1.51742	  0.14681	  2.77170	 -0.68313	 -0.24401	  3.13629	712.21997	 23.80	
 20.398	 72.996	  2.43352	  1.35336	  0.28419	  2.83786	 -0.71344	 -0.24353	  3.13984	712.21002	 23.80	
 20.394	 77.868	  2.43200	  1.18658	  0.42209	  2.88047	 -0.73887	 -0.24243	  3.13777	712.12000	 23.80	
 20.403	 82.668	  2.43730	  1.02371	  0.57107	  2.91153	 -0.75332	 -0.24423	  3.13833	712.09998	 23.80	
 20.392	 87.560	  2.43812	  0.86009	  0.72290	  2.92481	 -0.76300	 -0.24577	  3.13735	712.09998	 23.80	
 20.392	 92.440	  2.44274	  0.70497	  0.88201	  2.92318	 -0.76028	 -0.24672	  3.13545	712.15997	 23.80	
 20.403	 97.332	  2.44474	  0.55103	  1.04426	  2.90770	 -0.75282	 -0.24484	  3.13689	712.09998	 23.80	
 20.394	102.132	  2.44750	  0.40779	  1.20783	  2.87343	 -0.73502	 -0.24495	  3.13474	712.00000	 23.80	
 20.398	107.004	  2.45234	  0.26868	  1.37102	  2.82734	 -0.71001	 -0.24225	  3.13805	711.96002	 23.80	
 20.413	111.900	  2.45384	  0.13370	  1.53705	  2.76187	 -0.67818	 -0.23830	  3.13612	712.15997	 23.80	
 20.403	116.741	  2.45816	  0.01266	  1.69915	  2.68029	 -0.63311	 -0.23809	  3.13562	712.03998	 23.80	
 20.400	121.604	  2.46442	 -0.09577	  1.85794	  2.58586	 -0.57683	 -0.23423	  3.13475	712.02002	 23.80	
 20.410	126.511	  2.47021	 -0.20249	  2.01354	  2.47732	 -0.51305	 -0.23313	  3.13802	712.06000	 23.80	
 20.408	131.372	  2.47350	 -0.29671	  2.16060	  2.35658	 -0.44333	 -0.22801	  3.13874	712.08002	 23.80	
 20.396	136.227	  2.47565	 -0.37902	  2.29171	  2.22380	 -0.36495	 -0.22709	  3.13643	712.19000	 23.80	
 20.392	141.062	  2.48247	 -0.44952	  2.41641	  2.08234	 -0.26994	 -0.21867	  3.13739	712.13000	 23.80	
 20.397	145.903	  2.48444	 -0.51770	  2.53147	  1.92976	 -0.17053	 -0.21255	  3.13727	712.16998	 23.80	
 20.405	150.835	  2.48747	 -0.57424	  2.63236	  1.77195	 -0.05895	 -0.20414	  3.13737	712.20001	 23.80	
 20.401	155.705	  2.49271	 -0.61544	  2.71689	  1.61180	  0.06406	 -0.19511	  3.13675	712.08002	 23.80	
 20.392	160.496	  2.49625	 -0.65066	  2.78609	  1.44671	  0.19199	 -0.18939	  3.13637	712.06000	 23.80	
 20.410	165.423	  2.49831	 -0.67803	  2.84109	  1.27911	  0.33058	 -0.17930	  3.13454	712.12000	 23.80	
 20.407	170.264	  2.50205	 -0.69809	  2.87950	  1.11334	  0.47360	 -0.17111	  3.13314	712.09998	 23.80	
 20.401	175.153	  2.50836	 -0.70829	  2.90663	  0.94875	  0.62689	 -0.16403	  3.13669	712.10999	 23.80	
  0.141	 45.000	  3.14785	  1.39031	  1.37037	  1.38736	  1.34822	  0.07415	  3.13470	712.03998	 23.80	
  4.001	128.691	  3.13736	  1.11432	  1.57611	  1.64456	  1.03276	  0.04997	  3.13687	712.19000	 23.80	
  4.002	 76.995	  3.13347	  1.42527	  1.24885	  1.72865	  0.96043	  0.06005	  3.13479	712.15002	 23.80	
  4.002	 25.892	  3.13507	  1.70097	  1.00969	  1.50591	  1.14972	  0.06551	  3.13496	712.12000	 23.80	
  4.002	-25.892	  3.13878	  1.70346	  1.01781	  1.17535	  1.47666	  0.06023	  3.13705	712.08002	 23.80	
  4.002	-76.995	  3.14377	  1.43635	  1.25169	  0.99604	  1.69381	  0.04789	  3.13919	712.20001	 23.80	
  4.001	-128.691	  3.14354	  1.13345	  1.57223	  1.06527	  1.61132	  0.04123	  3.13767	712.16998	 23.80	
  4.000	180.000	  3.13936	  1.00439	  1.72300	  1.33336	  1.31606	  0.04081	  3.13632	712.14001	 23.80	
  8.000	180.000	  3.08038	  0.56692	  2.09211	  1.25945	  1.24339	 -0.01397	  3.13454	712.15002	 23.80	
  7.991	-152.370	  3.08874	  0.65040	  1.99315	  0.91471	  1.61781	 -0.01445	  3.13807	712.14001	 23.80	
  7.997	-124.550	  3.08879	  0.86775	  1.72039	  0.66539	  1.91886	 -0.01690	  3.13632	712.03998	 23.80	
  8.006	-96.837	  3.08484	  1.19765	  1.35190	  0.55195	  2.06747	 -0.01271	  3.13535	712.12000	 23.80	
  7.988	-69.228	  3.08222	  1.57373	  0.99192	  0.59242	  2.01438	 -0.00689	  3.13731	712.03003	 23.80	
  7.997	-41.563	  3.08038	  1.90266	  0.71464	  0.77746	  1.78024	  0.00499	  3.13988	712.09003	 23.80	
  8.008	-13.821	  3.07063	  2.09115	  0.55911	  1.08622	  1.42437	  0.01738	  3.13823	712.03003	 23.80	
  8.008	 13.821	  3.06477	  2.08592	  0.55754	  1.46154	  1.05194	  0.02313	  3.13739	712.19000	 23.80	
  7.997	 41.563	  3.06147	  1.88671	  0.70847	  1.81733	  0.74340	  0.02412	  3.13701	712.12000	 23.80	
  7.988	 69.228	  3.06311	  1.55430	  0.99130	  2.05153	  0.55889	  0.01718	  3.13817	712.09003	 23.80	
  8.006	 96.837	  3.06335	  1.17210	  1.35395	  2.10255	  0.51629	  0.00650	  3.13837	712.14001	 23.80	
  7.997	124.550	  3.07072	  0.84475	  1.72113	  1.94891	  0.63611	  0.00331	  3.13744	712.14001	 23.80	
  7.991	152.370	  3.07506	  0.63096	  1.99259	  1.63826	  0.88982	 -0.00904	  3.13585	712.10999	 23.80	
 12.009	161.059	  2.95172	  0.17466	  2.34300	  1.54021	  0.76331	 -0.07666	  3.13611	712.08002	 23.80	
 12.013	142.081	  2.94539	  0.31372	  2.13713	  1.91099	  0.45736	 -0.07659	  3.13781	712.04999	 23.80	
 12.006	123.113	  2.93608	  0.55351	  1.81938	  2.20796	  0.23664	 -0.06657	  3.13616	712.09003	 23.80	
 12.007	104.200	  2.93302	  0.87019	  1.44961	  2.39055	  0.10985	 -0.06698	  3.14066	712.06000	 23.80	
 11.989	 85.301	  2.92389	  1.24495	  1.05873	  2.42449	  0.08583	 -0.06021	  3.13679	712.09003	 23.80	
 12.013	 66.294	  2.92270	  1.64167	  0.70099	  2.32286	  0.15820	 -0.05762	  3.13962	712.09998	 23.80	
 12.012	 47.388	  2.92022	  1.99509	  0.41367	  2.08500	  0.32661	 -0.04834	  3.13678	711.97998	 23.80	
 11.990	 28.440	  2.92333	  2.26445	  0.21954	  1.74555	  0.59647	 -0.03880	  3.13594	712.04999	 23.80	
 11.991	  9.464	  2.92810	  2.41104	  0.12021	  1.35642	  0.93728	 -0.04219	  3.13551	712.09998	 23.80	
 11.991	 -9.464	  2.93511	  2.41896	  0.11881	  0.97176	  1.31836	 -0.04777	  3.13788	712.08002	 23.80	
 11.990	-28.440	  2.94129	  2.28147	  0.22035	  0.62886	  1.70407	 -0.05952	  3.13550	712.10999	 23.80	
 12.012	-47.388	  2.94563	  2.02149	  0.41274	  0.35871	  2.04564	 -0.06573	  3.13633	712.15002	 23.80	
 12.013	-66.294	  2.95438	  1.67157	  0.69914	  0.18392	  2.28412	 -0.06994	  3.13590	712.02002	 23.80	
 11.989	-85.301	  2.95881	  1.27905	  1.05395	  0.10971	  2.39122	 -0.07161	  3.13424	712.10999	 23.80	
 12.007	-104.200	  2.96331	  0.90100	  1.44219	  0.13112	  2.35930	 -0.07101	  3.13620	712.12000	 23.80	
 12.006	-123.113	  2.96629	  0.57942	  1.81941	  0.25347	  2.18342	 -0.07495	  3.13371	712.02002	 23.80	
 12.013	-142.081	  2.97146	  0.33614	  2.13754	  0.47085	  1.89240	 -0.07074	  3.13775	711.98999	 23.80	
 12.009	-161.059	  2.96618	  0.18726	  2.34256	  0.77585	  1.52432	 -0.08004	  3.13599	712.08002	 23.80	
 16.000	180.000	  2.77793	 -0.27578	  2.68307	  0.99320	  0.98560	 -0.12951	  3.13549	712.10999	 23.80	
 15.990	-165.604	  2.78570	 -0.23769	  2.62844	  0.62692	  1.37649	 -0.12381	  3.13587	712.09998	 23.80	
 16.002	-151.165	  2.78940	 -0.13579	  2.46653	  0.30472	  1.76464	 -0.10989	  3.13509	712.08002	 23.80	
 16.002	-136.836	  2.79257	  0.03705	  2.20877	  0.04561	  2.11469	 -0.10304	  3.13794	712.13000	 23.80	
 15.995	-122.439	  2.78804	  0.27596	  1.87064	 -0.14423	  2.39585	 -0.09898	  3.13657	712.09003	 23.80	
 15.993	-107.966	  2.78581	  0.58577	  1.48748	 -0.26243	  2.58866	 -0.09607	  3.13892	712.10999	 23.80	
 16.005	-93.629	  2.77759	  0.94224	  1.09477	 -0.31298	  2.66998	 -0.09642	  3.13754	712.01001	 23.80	
 15.992	-79.234	  2.77256	  1.33107	  0.71927	 -0.29452	  2.64020	 -0.09717	  3.13742	712.09998	 23.80	
 16.009	-64.774	  2.76402	  1.72090	  0.38436	 -0.21054	  2.50196	 -0.10560	  3.13904	712.13000	 23.80	
 15.997	-50.364	  2.75682	  2.08178	  0.11081	 -0.04835	  2.25826	 -0.10694	  3.13754	712.03003	 23.80	
 15.997	-36.045	  2.74947	  2.37571	 -0.09119	  0.17936	  1.93664	 -0.11339	  3.13629	712.16998	 23.80	
 16.000	-21.597	  2.74279	  2.58664	 -0.23329	  0.47179	  1.56038	 -0.11543	  3.13743	712.17999	 23.80	
 16.003	 -7.169	  2.73544	  2.68959	 -0.29411	  0.82422	  1.16636	 -0.11404	  3.13617	712.15002	 23.80	
 16.003	  7.169	  2.73143	  2.68441	 -0.29087	  1.20844	  0.79014	 -0.11740	  3.13820	712.09003	 23.80	
 16.000	 21.597	  2.72390	  2.56471	 -0.22300	  1.60081	  0.44486	 -0.11868	  3.13422	712.03998	 23.70	
 15.997	 36.045	  2.72148	  2.34710	 -0.08345	  1.98012	  0.15417	 -0.12539	  3.13714	712.07001	 23.70	
 15.997	 50.364	  2.71998	  2.04457	  0.12480	  2.29462	 -0.06308	 -0.13887	  3.13613	712.09003	 23.80	
 16.009	 64.774	  2.71838	  1.67798	  0.39958	  2.53491	 -0.21920	 -0.14865	  3.13710	712.08002	 23.80	
 15.992	 79.234	  2.72390	  1.28934	  0.73485	  2.66888	 -0.29983	 -0.14748	  3.13732	712.07001	 23.80	
 16.005	 93.629	  2.72936	  0.90489	  1.10659	  2.69434	 -0.31542	 -0.15329	  3.13741	712.20001	 23.80	
 15.993	107.966	  2.73859	  0.55483	  1.49306	  2.60990	 -0.26584	 -0.15321	  3.13732	712.06000	 23.80	
 15.995	122.439	  2.74563	  0.25092	  1.87262	  2.41532	 -0.14642	 -0.14684	  3.13681	712.17999	 23.70	
 16.002	136.836	  2.75311	  0.01336	  2.20781	  2.12543	  0.04472	 -0.14966	  3.13627	712.13000	 23.70	
 16.002	151.165	  2.76473	 -0.15048	  2.46743	  1.77842	  0.30096	 -0.14815	  3.13809	712.09003	 23.70	
 15.990	165.604	  2.77176	 -0.24688	  2.62913	  1.38652	  0.62069	 -0.13550	  3.13669	712.04999	 23.70	
 20.003	168.362	  2.53179	 -0.64659	  2.85121	  1.19519	  0.44715	 -0.17284	  3.13612	712.03003	 23.70	
 20.008	156.764	  2.52132	 -0.58684	  2.72181	  1.58191	  0.12149	 -0.19187	  3.13903	712.04999	 23.70	
 20.000	145.147	  2.51679	 -0.46404	  2.50670	  1.95728	 -0.14648	 -0.21081	  3.14029	712.03003	 23.70	
 19.995	133.545	  2.50163	 -0.29488	  2.21590	  2.28987	 -0.36753	 -0.22399	  3.13582	712.09998	 23.70	
 20.009	121.926	  2.49231	 -0.06830	  1.87143	  2.56702	 -0.53273	 -0.22753	  3.13527	712.21002	 23.70	
 20.005	110.327	  2.48222	  0.21201	  1.49405	  2.76635	 -0.64384	 -0.23522	  3.13422	712.06000	 23.70	
 19.989	 98.733	  2.47470	  0.53502	  1.11142	  2.87970	 -0.70368	 -0.23888	  3.13488	712.16998	 23.70	
 19.999	 87.075	  2.46656	  0.89496	  0.73329	  2.90631	 -0.71992	 -0.23937	  3.13667	712.10999	 23.80	
 19.992	 75.457	  2.46101	  1.28095	  0.38305	  2.84462	 -0.68579	 -0.23708	  3.13674	712.09998	 23.70	
 20.009	 63.844	  2.45805	  1.67185	  0.07453	  2.69082	 -0.59919	 -0.23608	  3.13716	712.14001	 23.70	
 19.989	 52.269	  2.46016	  2.03618	 -0.18008	  2.45383	 -0.46220	 -0.22942	  3.13654	712.09003	 23.70	
 19.999	 40.602	  2.45800	  2.36041	 -0.38863	  2.14736	 -0.27246	 -0.21841	  3.13611	712.01001	 23.70	
 20.004	 29.051	  2.46516	  2.62115	 -0.53878	  1.79629	 -0.03070	 -0.20544	  3.13899	712.01001	 23.70	
 20.005	 17.433	  2.46812	  2.80131	 -0.63695	  1.41091	  0.26778	 -0.19092	  3.13671	712.00000	 23.70	
 20.006	  5.780	  2.47164	  2.89483	 -0.68840	  1.02069	  0.60510	 -0.17722	  3.13641	712.04999	 23.70	
 20.006	 -5.780	  2.47761	  2.89848	 -0.68624	  0.65067	  0.97544	 -0.16332	  3.13412	712.01001	 23.70	
 20.005	-17.433	  2.48660	  2.82177	 -0.64330	  0.30562	  1.36442	 -0.14875	  3.13807	711.96997	 23.70	
 20.004	-29.051	  2.49415	  2.65134	 -0.54479	  0.00502	  1.75049	 -0.13855	  3.13742	711.95001	 23.70	
 19.999	-40.602	  2.50051	  2.40152	 -0.39302	 -0.23992	  2.10901	 -0.13024	  3.13605	711.96997	 23.70	
 19.989	-52.269	  2.50888	  2.08409	 -0.18769	 -0.43370	  2.41677	 -0.12223	  3.13511	711.92999	 23.70	
 20.009	-63.844	  2.51602	  1.72618	  0.06837	 -0.57227	  2.65790	 -0.11685	  3.13614	711.94000	 23.70	
 19.992	-75.457	  2.52474	  1.34195	  0.37755	 -0.65785	  2.81397	 -0.11050	  3.13706	711.96002	 23.70	
 19.999	-87.075	  2.53262	  0.95816	  0.72855	 -0.69343	  2.88255	 -0.11158	  3.13809	711.96002	 23.70	
 19.989	-98.733	  2.53829	  0.58957	  1.10615	 -0.68307	  2.86068	 -0.10293	  3.13574	712.01001	 23.70	
 20.005	-110.327	  2.54349	  0.25972	  1.49128	 -0.62795	  2.75452	 -0.10123	  3.13562	712.02002	 23.70	
 20.009	-121.926	  2.55049	 -0.02381	  1.87254	 -0.51662	  2.55819	 -0.10499	  3.13695	712.02002	 23.70	
 19.995	-133.545	  2.55500	 -0.25685	  2.21943	 -0.35565	  2.28543	 -0.11015	  3.13847	711.96002	 23.70	
 20.000	-145.147	  2.55576	 -0.43512	  2.50668	 -0.14020	  1.95377	 -0.11924	  3.13729	711.94000	 23.70	
 20.008	-156.764	  2.55146	 -0.56168	  2.72243	  0.13218	  1.58139	 -0.12940	  3.13556	711.91998	 23.70	
 20.003	-168.362	  2.54771	 -0.63842	  2.85410	  0.45005	  1.19489	 -0.13705	  3.13798	711.96002	 23.70	
 20.000	180.000	  2.53870	 -0.66848	  2.89479	  0.80973	  0.80559	 -0.15644	  3.13537	711.85999	 23.70	
