FileType=PCF
NHL=14
Date=08/24/17	12:29:43
Facility=APL
Serial=16328-3
Customer=NASA
NP=6
Mach=0.100000
Calibration=1:1
CalPts=490
TstPts=95
PortNumbering=AP Standard
Units=Torr C m/s kg/m^3 deg mm 
Theta[deg]	Phi[deg]	P1[Torr]	P2[Torr]	P3[Torr]	P4[Torr]	P5[Torr]	P6[Torr]	Pt[Torr]	Ps[Abs,Torr]	Ts[C]	
  0.000	  0.000	  4.86450	  2.59092	  2.54067	  2.53591	  2.61194	  0.03483	  4.86104	704.04401	 23.90	
  1.691	128.401	  4.86766	  2.45475	  2.65249	  2.69492	  2.43106	  0.02915	  4.86750	703.94397	 23.90	
  1.692	 77.194	  4.87733	  2.63586	  2.46894	  2.73119	  2.40595	  0.02480	  4.87778	703.99902	 23.90	
  1.699	 26.182	  4.87498	  2.78220	  2.33463	  2.62667	  2.48834	  0.02556	  4.87486	703.91302	 23.90	
  1.699	-26.182	  4.87691	  2.78248	  2.32208	  2.41966	  2.69537	  0.02512	  4.87717	704.02002	 23.90	
  1.692	-77.194	  4.88010	  2.60997	  2.47805	  2.30933	  2.83129	  0.02376	  4.87917	704.02002	 23.90	
  1.691	-128.401	  4.87734	  2.42455	  2.67213	  2.35806	  2.77705	  0.02279	  4.87657	703.98297	 23.90	
  1.700	180.000	  4.86613	  2.35782	  2.75853	  2.52600	  2.58462	  0.03001	  4.86573	704.06799	 23.90	
  3.400	180.000	  4.87296	  2.09594	  3.00404	  2.49868	  2.56757	  0.01522	  4.87932	703.96301	 23.90	
  3.388	-152.325	  4.87012	  2.13173	  2.94525	  2.27799	  2.79424	  0.00999	  4.87860	703.92401	 23.90	
  3.397	-124.529	  4.85638	  2.26289	  2.77492	  2.10880	  2.97262	  0.00585	  4.86394	704.05298	 23.90	
  3.399	-96.763	  4.86084	  2.47131	  2.55314	  2.03420	  3.06660	  0.00401	  4.87244	704.12903	 23.90	
  3.394	-69.283	  4.86483	  2.70536	  2.32869	  2.05653	  3.04348	  0.00752	  4.87750	704.04199	 23.90	
  3.400	-41.398	  4.87782	  2.91639	  2.15287	  2.17880	  2.91109	  0.01371	  4.89050	704.13000	 23.90	
  3.401	-14.021	  4.87019	  3.03309	  2.05057	  2.36338	  2.69944	  0.00974	  4.88197	704.16498	 23.90	
  3.401	 14.021	  4.88047	  3.04578	  2.05402	  2.60544	  2.46460	  0.01149	  4.89385	704.09302	 23.90	
  3.400	 41.398	  4.86754	  2.92988	  2.14623	  2.80818	  2.26577	  0.00918	  4.87696	704.12402	 23.90	
  3.394	 69.283	  4.86205	  2.72768	  2.32068	  2.94873	  2.14397	  0.00699	  4.87185	704.09601	 23.90	
  3.399	 96.763	  4.87590	  2.50735	  2.54847	  2.98778	  2.13118	  0.01092	  4.87950	704.00598	 23.90	
  3.397	124.529	  4.88154	  2.29984	  2.77607	  2.91113	  2.19635	  0.01428	  4.88639	704.13397	 23.90	
  3.388	152.325	  4.87989	  2.16034	  2.94246	  2.73036	  2.35231	  0.01470	  4.88554	704.03900	 23.90	
  5.099	161.165	  4.84977	  1.86530	  3.19471	  2.71411	  2.29453	  0.00049	  4.87851	704.10400	 23.90	
  5.109	142.013	  4.85942	  1.98072	  3.06740	  2.93911	  2.09840	 -0.00047	  4.88414	704.01099	 23.90	
  5.095	123.033	  4.84963	  2.14521	  2.86589	  3.10127	  1.95458	 -0.00374	  4.87374	704.02802	 23.90	
  5.105	104.191	  4.86667	  2.36359	  2.64389	  3.21342	  1.87552	 -0.00753	  4.88843	704.09601	 23.90	
  5.093	 85.207	  4.85313	  2.60027	  2.39452	  3.22212	  1.85790	 -0.01010	  4.87940	703.97998	 23.90	
  5.104	 66.290	  4.84913	  2.83801	  2.16522	  3.15123	  1.90707	 -0.01241	  4.87731	703.97803	 23.90	
  5.094	 47.331	  4.84780	  3.04634	  1.97811	  3.00469	  2.02780	 -0.01186	  4.88064	704.10699	 23.90	
  5.089	 28.397	  4.84105	  3.19841	  1.83846	  2.80292	  2.19963	 -0.01069	  4.87842	703.96301	 23.90	
  5.096	  9.576	  4.83450	  3.27366	  1.76643	  2.56404	  2.41973	 -0.00937	  4.87434	704.09900	 23.90	
  5.096	 -9.576	  4.82112	  3.25505	  1.76645	  2.30885	  2.66290	 -0.00781	  4.86053	704.03601	 23.90	
  5.089	-28.397	  4.83608	  3.17443	  1.84480	  2.10248	  2.90169	 -0.00729	  4.87544	703.95099	 23.90	
  5.094	-47.331	  4.83311	  3.00891	  1.98393	  1.92412	  3.10248	 -0.00733	  4.87611	704.09003	 23.90	
  5.104	-66.290	  4.84583	  2.80008	  2.18239	  1.80828	  3.25509	 -0.01437	  4.88783	704.12598	 23.90	
  5.093	-85.207	  4.83526	  2.55289	  2.40932	  1.75745	  3.30799	 -0.01899	  4.87515	703.94299	 23.90	
  5.105	-104.191	  4.83984	  2.31114	  2.65821	  1.77862	  3.28739	 -0.01938	  4.87747	703.92902	 23.80	
  5.095	-123.033	  4.83345	  2.10373	  2.88056	  1.86917	  3.17211	 -0.01468	  4.86741	703.97498	 23.80	
  5.109	-142.013	  4.83240	  1.94172	  3.07006	  2.02436	  2.99524	 -0.01016	  4.86625	703.97101	 23.80	
  5.099	-161.165	  4.84737	  1.85117	  3.20155	  2.23594	  2.77849	 -0.00180	  4.87871	703.97498	 23.80	
  5.100	180.000	  4.85545	  1.82914	  3.24540	  2.47382	  2.54048	  0.00117	  4.88553	704.00800	 23.80	
  6.800	180.000	  4.81454	  1.54537	  3.47145	  2.43301	  2.48864	 -0.02405	  4.88564	704.16101	 23.80	
  6.796	-166.229	  4.79538	  1.55663	  3.43158	  2.19150	  2.71870	 -0.02364	  4.87090	703.98297	 23.80	
  6.808	-152.311	  4.79696	  1.62326	  3.34478	  1.97558	  2.95167	 -0.02906	  4.87416	704.10101	 23.80	
  6.795	-138.383	  4.79837	  1.73983	  3.19920	  1.78519	  3.16666	 -0.03866	  4.87556	703.97998	 23.80	
  6.792	-124.591	  4.79442	  1.89827	  3.00664	  1.63547	  3.33550	 -0.04337	  4.87451	703.88098	 23.80	
  6.787	-110.754	  4.78016	  2.08889	  2.77859	  1.52964	  3.44641	 -0.04470	  4.86437	704.20801	 23.80	
  6.800	-96.985	  4.79713	  2.31922	  2.55196	  1.47968	  3.52574	 -0.05110	  4.88208	704.15503	 23.80	
  6.800	-83.015	  4.78213	  2.55417	  2.30086	  1.47244	  3.51888	 -0.04958	  4.87247	704.03601	 23.80	
  6.787	-69.246	  4.77372	  2.78651	  2.07134	  1.51691	  3.45538	 -0.04437	  4.86364	704.09900	 23.80	
  6.792	-55.409	  4.78152	  3.01706	  1.87129	  1.61153	  3.34661	 -0.04241	  4.87238	704.09198	 23.80	
  6.795	-41.617	  4.78379	  3.21332	  1.70552	  1.75631	  3.17862	 -0.03792	  4.87468	704.11499	 23.80	
  6.808	-27.689	  4.77939	  3.36438	  1.57553	  1.93843	  2.96689	 -0.03191	  4.87090	704.09003	 23.80	
  6.796	-13.771	  4.77478	  3.45626	  1.49668	  2.14842	  2.73183	 -0.03301	  4.86274	704.01599	 23.80	
  6.800	  0.000	  4.78981	  3.50705	  1.47114	  2.38514	  2.50163	 -0.03571	  4.87707	704.07001	 23.80	
  6.796	 13.771	  4.79767	  3.48574	  1.49777	  2.62943	  2.26935	 -0.03537	  4.88094	703.98602	 23.80	
  6.808	 27.689	  4.79963	  3.40299	  1.56862	  2.86433	  2.05133	 -0.03258	  4.88072	704.09601	 23.80	
  6.795	 41.617	  4.80842	  3.26147	  1.70031	  3.07627	  1.87447	 -0.03882	  4.88311	704.02197	 23.80	
  6.792	 55.409	  4.81549	  3.07918	  1.86644	  3.25408	  1.73137	 -0.03747	  4.88642	704.01898	 23.80	
  6.787	 69.246	  4.79504	  2.84599	  2.05649	  3.36400	  1.62610	 -0.03685	  4.86305	703.84998	 23.80	
  6.800	 83.015	  4.81207	  2.62187	  2.28459	  3.44080	  1.57878	 -0.04033	  4.87461	703.97803	 23.80	
  6.800	 96.985	  4.80468	  2.37561	  2.52294	  3.44089	  1.57726	 -0.03676	  4.86600	704.04700	 23.80	
  6.787	110.754	  4.81187	  2.15576	  2.76266	  3.38560	  1.62790	 -0.03174	  4.87101	703.97101	 23.80	
  6.792	124.591	  4.82268	  1.96053	  2.99320	  3.27784	  1.72618	 -0.02869	  4.88538	703.98297	 23.80	
  6.795	138.383	  4.81830	  1.79123	  3.18473	  3.10894	  1.86368	 -0.02701	  4.87942	703.98798	 23.80	
  6.808	152.311	  4.81679	  1.65901	  3.33950	  2.90669	  2.03998	 -0.02221	  4.88110	703.99597	 23.80	
  6.796	166.229	  4.80215	  1.57582	  3.42498	  2.66783	  2.24772	 -0.02050	  4.87015	704.06702	 23.80	
  8.491	168.704	  4.75652	  1.28785	  3.64862	  2.62811	  2.18041	 -0.05403	  4.88148	704.01898	 23.80	
  8.502	157.493	  4.73137	  1.34468	  3.54990	  2.85138	  1.94567	 -0.04795	  4.85221	703.90900	 23.80	
  8.494	146.194	  4.74100	  1.45698	  3.42480	  3.07894	  1.75469	 -0.05141	  4.85966	703.95697	 23.80	
  8.495	135.039	  4.72855	  1.59374	  3.24660	  3.26557	  1.58349	 -0.06029	  4.84465	703.95099	 23.80	
  8.487	123.723	  4.74234	  1.77634	  3.04764	  3.43803	  1.45581	 -0.06288	  4.85668	704.10101	 23.80	
  8.492	112.575	  4.75344	  1.98084	  2.82913	  3.56547	  1.36406	 -0.06402	  4.86685	703.91602	 23.80	
  8.510	101.220	  4.73428	  2.19803	  2.57366	  3.62601	  1.29664	 -0.07282	  4.84774	703.97498	 23.80	
  8.500	 90.000	  4.73079	  2.43494	  2.32792	  3.64340	  1.27847	 -0.07846	  4.85005	704.02197	 23.80	
  8.510	 78.780	  4.73611	  2.68317	  2.09134	  3.61854	  1.29921	 -0.07612	  4.85656	703.95801	 23.80	
  8.492	 67.425	  4.72692	  2.91894	  1.86415	  3.52955	  1.35989	 -0.07210	  4.85208	703.89001	 23.80	
  8.487	 56.277	  4.73379	  3.14297	  1.67045	  3.40955	  1.46125	 -0.07443	  4.86212	703.89001	 23.80	
  8.495	 44.961	  4.72935	  3.34386	  1.49252	  3.23806	  1.59854	 -0.07691	  4.86448	703.95203	 23.80	
  8.494	 33.806	  4.72536	  3.49899	  1.35769	  3.03439	  1.77071	 -0.07349	  4.86768	704.06201	 23.80	
  8.502	 22.507	  4.71212	  3.61469	  1.24971	  2.79926	  1.96911	 -0.07070	  4.85774	704.00598	 23.80	
  8.491	 11.296	  4.72322	  3.68993	  1.19874	  2.56848	  2.19475	 -0.07099	  4.87012	703.99402	 23.80	
  8.500	  0.000	  4.72062	  3.70825	  1.17882	  2.31854	  2.43956	 -0.07044	  4.87413	704.04700	 23.90	
  8.491	-11.296	  4.71163	  3.66865	  1.20156	  2.07560	  2.68182	 -0.06429	  4.86571	704.06097	 23.80	
  8.502	-22.507	  4.71879	  3.59427	  1.26508	  1.85716	  2.92493	 -0.05895	  4.87349	703.99701	 23.90	
  8.494	-33.806	  4.72853	  3.46636	  1.37657	  1.65946	  3.15939	 -0.06467	  4.88611	703.97998	 23.80	
  8.495	-44.961	  4.69663	  3.27596	  1.50447	  1.47685	  3.33882	 -0.07439	  4.85244	704.12299	 23.90	
  8.487	-56.277	  4.69780	  3.06980	  1.68556	  1.34730	  3.49853	 -0.07817	  4.85052	703.99597	 23.80	
  8.492	-67.425	  4.69995	  2.84427	  1.88662	  1.25034	  3.61919	 -0.07785	  4.85327	703.95801	 23.90	
  8.510	-78.780	  4.69923	  2.60063	  2.11273	  1.18920	  3.69604	 -0.08429	  4.85414	704.10901	 23.90	
  8.500	-90.000	  4.70882	  2.35994	  2.36052	  1.17762	  3.72489	 -0.08801	  4.85994	704.09003	 23.90	
  8.510	-101.220	  4.71523	  2.12479	  2.60893	  1.20256	  3.69990	 -0.08441	  4.86308	704.04700	 23.80	
  8.492	-112.575	  4.72952	  1.90838	  2.85850	  1.27410	  3.62764	 -0.07549	  4.87695	704.15503	 23.80	
  8.487	-123.723	  4.71471	  1.70721	  3.07264	  1.37228	  3.49111	 -0.07005	  4.85878	704.00000	 23.80	
  8.495	-135.039	  4.72369	  1.53880	  3.27846	  1.51448	  3.33016	 -0.06743	  4.86530	703.93701	 23.80	
  8.494	-146.194	  4.71279	  1.40650	  3.43402	  1.68716	  3.12076	 -0.06183	  4.85205	704.08099	 23.80	
  8.502	-157.493	  4.72331	  1.31601	  3.56434	  1.89829	  2.89623	 -0.05614	  4.85773	704.01599	 23.80	
  8.491	-168.704	  4.72637	  1.26611	  3.63770	  2.12554	  2.65754	 -0.05562	  4.85638	704.09802	 23.80	
  8.500	180.000	  4.73307	  1.25345	  3.66510	  2.36805	  2.41457	 -0.05795	  4.86388	703.98199	 23.80	
 10.200	180.000	  4.65356	  0.96045	  3.86227	  2.29929	  2.33541	 -0.09677	  4.86391	703.94000	 23.80	
 10.191	-170.497	  4.65640	  0.97366	  3.84552	  2.05871	  2.58660	 -0.09481	  4.86740	704.05902	 23.80	
 10.210	-161.034	  4.64810	  1.01329	  3.77778	  1.82349	  2.82785	 -0.09079	  4.86507	704.13000	 23.80	
 10.194	-151.526	  4.65024	  1.09442	  3.67199	  1.60735	  3.07249	 -0.09225	  4.86742	703.98297	 23.80	
 10.190	-142.105	  4.63102	  1.19990	  3.51473	  1.40937	  3.27920	 -0.09735	  4.85047	703.94897	 23.80	
 10.215	-132.646	  4.64601	  1.34093	  3.35088	  1.24721	  3.48682	 -0.09985	  4.87078	703.94397	 23.80	
 10.203	-123.092	  4.63329	  1.51117	  3.13408	  1.10860	  3.64530	 -0.10517	  4.85897	704.06201	 23.80	
 10.192	-113.678	  4.62661	  1.70484	  2.90156	  1.00119	  3.76984	 -0.11261	  4.85781	704.05902	 23.80	
 10.208	-104.249	  4.63639	  1.92395	  2.66779	  0.92705	  3.87306	 -0.12312	  4.87205	704.09601	 23.80	
 10.210	-94.801	  4.62941	  2.15747	  2.41761	  0.88800	  3.91619	 -0.12956	  4.86933	704.06201	 23.80	
 10.210	-85.199	  4.61950	  2.40494	  2.15943	  0.88230	  3.91360	 -0.12608	  4.85731	704.07001	 23.80	
 10.208	-75.751	  4.62823	  2.65645	  1.92430	  0.91278	  3.87939	 -0.12096	  4.87101	704.01398	 23.80	
 10.192	-66.322	  4.61476	  2.88997	  1.69997	  0.97850	  3.78179	 -0.11842	  4.85439	703.98901	 23.80	
 10.203	-56.908	  4.62029	  3.12462	  1.49823	  1.07847	  3.66092	 -0.11532	  4.86153	704.04401	 23.80	
 10.215	-47.354	  4.61769	  3.33875	  1.31505	  1.20706	  3.49872	 -0.11153	  4.86111	704.10901	 23.80	
 10.190	-37.895	  4.61947	  3.52042	  1.16805	  1.36642	  3.30824	 -0.10003	  4.86052	704.01599	 23.80	
 10.194	-28.474	  4.61467	  3.66740	  1.04677	  1.55169	  3.08811	 -0.09538	  4.85602	703.95203	 23.80	
 10.210	-18.966	  4.62694	  3.79402	  0.95801	  1.76765	  2.85714	 -0.09380	  4.86705	704.00299	 23.80	
 10.191	 -9.503	  4.63075	  3.86709	  0.90752	  1.99733	  2.61597	 -0.09929	  4.86859	704.04999	 23.90	
 10.200	  0.000	  4.61917	  3.88808	  0.88107	  2.23079	  2.36233	 -0.10389	  4.85072	704.05298	 23.80	
 10.191	  9.503	  4.62665	  3.87621	  0.90091	  2.48477	  2.11954	 -0.10763	  4.85836	704.13202	 23.80	
 10.210	 18.966	  4.62117	  3.81400	  0.94435	  2.72435	  1.88669	 -0.10792	  4.84889	704.01300	 23.80	
 10.194	 28.474	  4.65264	  3.73075	  1.03721	  2.97835	  1.68519	 -0.10936	  4.87545	703.85303	 23.80	
 10.190	 37.895	  4.64765	  3.58680	  1.14932	  3.19644	  1.49225	 -0.11643	  4.86329	703.90997	 23.80	
 10.215	 47.354	  4.66195	  3.42528	  1.29523	  3.40521	  1.33193	 -0.11583	  4.87673	704.11798	 23.90	
 10.203	 56.908	  4.65850	  3.21236	  1.47365	  3.56724	  1.19585	 -0.11532	  4.86591	704.09302	 23.90	
 10.192	 66.322	  4.66346	  2.98820	  1.67579	  3.69666	  1.10044	 -0.11081	  4.86576	704.03601	 23.90	
 10.208	 75.751	  4.66713	  2.75115	  1.89695	  3.79198	  1.02969	 -0.11704	  4.86427	704.01599	 23.90	
 10.210	 85.199	  4.66057	  2.49824	  2.12886	  3.83563	  0.99318	 -0.12344	  4.85372	704.05402	 23.90	
 10.210	 94.801	  4.66663	  2.25386	  2.38270	  3.84526	  0.99506	 -0.12130	  4.85769	704.10400	 23.90	
 10.208	104.249	  4.68651	  2.02349	  2.64233	  3.81926	  1.03254	 -0.11474	  4.87646	704.01398	 23.90	
 10.192	113.678	  4.68587	  1.80286	  2.88358	  3.73301	  1.09911	 -0.10559	  4.87316	704.11200	 23.90	
 10.203	123.092	  4.68755	  1.59905	  3.11633	  3.61392	  1.19383	 -0.10126	  4.87396	704.00800	 23.90	
 10.215	132.646	  4.67166	  1.41179	  3.32249	  3.44576	  1.31360	 -0.09654	  4.86118	704.12097	 23.90	
 10.190	142.105	  4.66905	  1.26138	  3.50344	  3.25047	  1.47606	 -0.08941	  4.85848	704.00598	 23.90	
 10.194	151.526	  4.66512	  1.13789	  3.65402	  3.03217	  1.66014	 -0.08071	  4.86028	704.09003	 23.90	
 10.210	161.034	  4.66057	  1.04668	  3.76519	  2.79545	  1.86831	 -0.08076	  4.85787	704.08899	 23.90	
 10.191	170.497	  4.65909	  0.98902	  3.83406	  2.55390	  2.09464	 -0.08946	  4.85974	704.01898	 23.90	
 11.899	171.783	  4.55720	  0.69703	  4.01098	  2.47179	  2.00106	 -0.12658	  4.85180	704.13000	 23.90	
 11.890	163.610	  4.56046	  0.74731	  3.95038	  2.71671	  1.77553	 -0.11839	  4.85415	704.19397	 23.90	
 11.889	155.445	  4.57316	  0.82739	  3.85827	  2.96295	  1.56347	 -0.11337	  4.86105	704.12299	 23.90	
 11.909	147.299	  4.56956	  0.92736	  3.72242	  3.18981	  1.36229	 -0.11895	  4.85304	704.02197	 23.90	
 11.902	139.148	  4.56519	  1.06231	  3.54887	  3.39461	  1.19060	 -0.12417	  4.84523	704.09198	 23.90	
 11.894	130.867	  4.56044	  1.22001	  3.35034	  3.57392	  1.04257	 -0.13292	  4.83618	704.14099	 23.90	
 11.897	122.732	  4.57399	  1.40304	  3.14414	  3.74216	  0.92242	 -0.14028	  4.85394	704.11298	 23.90	
 11.903	114.597	  4.57986	  1.60228	  2.91709	  3.87565	  0.82217	 -0.14868	  4.86002	704.12402	 23.90	
 11.893	106.346	  4.58335	  1.82452	  2.67007	  3.96984	  0.75254	 -0.16000	  4.86840	704.07800	 23.90	
 11.892	 98.155	  4.57144	  2.05640	  2.41464	  4.00968	  0.71376	 -0.16534	  4.85438	704.09802	 23.90	
 11.900	 90.000	  4.58568	  2.30697	  2.17184	  4.03956	  0.70031	 -0.16801	  4.87165	704.10101	 23.90	
 11.892	 81.845	  4.57801	  2.55396	  1.92631	  4.00882	  0.71748	 -0.16155	  4.86810	704.07300	 23.90	
 11.893	 73.654	  4.56307	  2.79452	  1.68775	  3.93489	  0.75949	 -0.15433	  4.85679	704.13800	 23.90	
 11.903	 65.403	  4.55586	  3.03165	  1.46586	  3.83176	  0.82909	 -0.15386	  4.85376	704.17700	 23.90	
 11.897	 57.268	  4.55528	  3.26036	  1.26728	  3.69766	  0.93023	 -0.15091	  4.85888	704.06500	 23.90	
 11.894	 49.133	  4.55028	  3.46298	  1.09613	  3.53130	  1.05804	 -0.15288	  4.85717	704.10699	 23.90	
 11.902	 40.852	  4.54159	  3.64712	  0.93697	  3.33713	  1.20629	 -0.15346	  4.85443	704.08502	 23.90	
 11.909	 32.701	  4.53382	  3.79893	  0.81089	  3.12008	  1.38373	 -0.15067	  4.85385	704.09802	 23.90	
 11.889	 24.555	  4.54106	  3.92943	  0.71744	  2.89184	  1.58939	 -0.14686	  4.86503	704.06799	 23.90	
 11.890	 16.390	  4.53227	  4.01010	  0.64788	  2.64456	  1.80723	 -0.14595	  4.86201	704.07501	 23.90	
 11.899	  8.217	  4.52535	  4.05411	  0.60539	  2.39633	  2.03544	 -0.14339	  4.85743	704.14099	 23.90	
 11.900	  0.000	  4.52935	  4.06990	  0.59367	  2.14774	  2.28356	 -0.14317	  4.86512	704.19098	 23.90	
 11.899	 -8.217	  4.52336	  4.04229	  0.60958	  1.90298	  2.53212	 -0.13057	  4.86378	704.16101	 23.90	
 11.890	-16.390	  4.51998	  3.97417	  0.65739	  1.67306	  2.77470	 -0.12887	  4.86365	704.09900	 23.90	
 11.889	-24.555	  4.52582	  3.87745	  0.73584	  1.45631	  3.02310	 -0.12378	  4.86724	704.11603	 23.90	
 11.909	-32.701	  4.51682	  3.74187	  0.82998	  1.25461	  3.24691	 -0.13275	  4.86339	704.02698	 23.90	
 11.902	-40.852	  4.51633	  3.57545	  0.96041	  1.08262	  3.45326	 -0.13689	  4.85926	704.16498	 23.90	
 11.894	-49.133	  4.51475	  3.37522	  1.12226	  0.93377	  3.64151	 -0.14681	  4.85877	704.15198	 23.90	
 11.897	-57.268	  4.51291	  3.16101	  1.29961	  0.80693	  3.80056	 -0.14804	  4.85983	704.16498	 23.90	
 11.903	-65.403	  4.50143	  2.91745	  1.49888	  0.70910	  3.91597	 -0.15738	  4.84466	704.21002	 23.90	
 11.893	-73.654	  4.49366	  2.66731	  1.72034	  0.64192	  3.99792	 -0.15723	  4.83470	704.09900	 23.90	
 11.892	-81.845	  4.49869	  2.42417	  1.95230	  0.60516	  4.05373	 -0.16509	  4.84098	704.02802	 23.90	
 11.900	-90.000	  4.50783	  2.18096	  2.20048	  0.59427	  4.07885	 -0.17132	  4.84687	704.10101	 23.90	
 11.892	-98.155	  4.52031	  1.94700	  2.45455	  0.61609	  4.06571	 -0.16593	  4.85857	704.17499	 23.90	
 11.893	-106.346	  4.51724	  1.71434	  2.70077	  0.66082	  4.00232	 -0.15770	  4.84815	704.02301	 23.90	
 11.903	-114.597	  4.52022	  1.49769	  2.94494	  0.73393	  3.90920	 -0.14615	  4.85302	704.19598	 23.90	
 11.897	-122.732	  4.53069	  1.30940	  3.17857	  0.84011	  3.78291	 -0.13882	  4.85637	704.15997	 23.90	
 11.894	-130.867	  4.52825	  1.13865	  3.38612	  0.97378	  3.61412	 -0.13372	  4.85341	704.00299	 23.90	
 11.902	-139.148	  4.52678	  0.99001	  3.57467	  1.13389	  3.41734	 -0.13152	  4.84573	704.15503	 23.90	
 11.909	-147.299	  4.54118	  0.87017	  3.74477	  1.31333	  3.21494	 -0.13385	  4.86041	704.17700	 23.90	
 11.889	-155.445	  4.54165	  0.78194	  3.86687	  1.51590	  2.98365	 -0.13174	  4.85625	704.20300	 23.90	
 11.890	-163.610	  4.55735	  0.71864	  3.97120	  1.74454	  2.74646	 -0.13386	  4.86554	704.10901	 23.90	
 11.899	-171.783	  4.55490	  0.67957	  4.02105	  1.97212	  2.49580	 -0.13715	  4.86085	704.01300	 23.90	
 11.900	180.000	  4.55932	  0.67210	  4.04175	  2.21810	  2.24937	 -0.13813	  4.86279	704.15698	 23.90	
 13.600	180.000	  4.45578	  0.38654	  4.21305	  2.13269	  2.15142	 -0.17546	  4.87272	704.10901	 23.90	
 13.608	-172.853	  4.44443	  0.39107	  4.19254	  1.88806	  2.39146	 -0.17825	  4.86692	704.09802	 23.90	
 13.611	-165.583	  4.42534	  0.41898	  4.12965	  1.64348	  2.63475	 -0.17738	  4.84930	704.06500	 23.90	
 13.601	-158.353	  4.43155	  0.47189	  4.05694	  1.41907	  2.88672	 -0.17518	  4.85995	704.03101	 23.90	
 13.609	-151.210	  4.42431	  0.54881	  3.93792	  1.21248	  3.11670	 -0.17201	  4.85514	704.25800	 23.90	
 13.611	-143.999	  4.43467	  0.65524	  3.80408	  1.02703	  3.35197	 -0.17056	  4.87038	704.20203	 23.90	
 13.601	-136.825	  4.42276	  0.78102	  3.62510	  0.85227	  3.55685	 -0.16632	  4.86045	704.13000	 23.90	
 13.596	-129.640	  4.40489	  0.92616	  3.41517	  0.69992	  3.73079	 -0.16767	  4.84519	704.02002	 23.90	
 13.611	-122.431	  4.41397	  1.09903	  3.21179	  0.57540	  3.90337	 -0.16783	  4.85920	704.09302	 23.90	
 13.604	-115.211	  4.39671	  1.28770	  2.97108	  0.47685	  4.01955	 -0.17626	  4.84340	704.02301	 23.90	
 13.595	-108.042	  4.39937	  1.49818	  2.73095	  0.39957	  4.12496	 -0.19028	  4.85035	704.05902	 23.90	
 13.607	-100.793	  4.39682	  1.72224	  2.48283	  0.34416	  4.19646	 -0.19573	  4.85296	704.02197	 23.90	
 13.601	-93.617	  4.39047	  1.95539	  2.23322	  0.31704	  4.22903	 -0.19498	  4.84980	703.95502	 23.90	
 13.601	-86.383	  4.38872	  2.20093	  1.98418	  0.31209	  4.23275	 -0.19148	  4.84749	703.90601	 23.90	
 13.607	-79.207	  4.39630	  2.45261	  1.74732	  0.33146	  4.21125	 -0.18406	  4.85803	703.97498	 23.90	
 13.595	-71.958	  4.38232	  2.69611	  1.51138	  0.37379	  4.13557	 -0.17555	  4.84733	704.17499	 23.90	
 13.604	-64.789	  4.38479	  2.94256	  1.29377	  0.44354	  4.04292	 -0.17558	  4.84823	704.09802	 23.90	
 13.611	-57.569	  4.37754	  3.17059	  1.09507	  0.53748	  3.91043	 -0.17345	  4.84241	704.16101	 23.90	
 13.596	-50.360	  4.36960	  3.38127	  0.91719	  0.65618	  3.74524	 -0.17125	  4.83043	704.25000	 23.90	
 13.601	-43.175	  4.38604	  3.59519	  0.76006	  0.79981	  3.57633	 -0.16363	  4.84747	704.11499	 23.90	
 13.611	-36.001	  4.39894	  3.78037	  0.62999	  0.96676	  3.38210	 -0.16103	  4.86023	704.17499	 23.90	
 13.609	-28.790	  4.39707	  3.93207	  0.51346	  1.14421	  3.16350	 -0.15133	  4.86157	704.03601	 23.90	
 13.601	-21.647	  4.40299	  4.05424	  0.42687	  1.34874	  2.93096	 -0.15219	  4.86471	704.11298	 23.90	
 13.611	-14.417	  4.38166	  4.12229	  0.36168	  1.56507	  2.66827	 -0.15421	  4.83676	704.25098	 23.90	
 13.608	 -7.147	  4.39984	  4.19500	  0.32528	  1.80430	  2.42892	 -0.16513	  4.85480	704.25500	 23.90	
 13.600	  0.000	  4.39840	  4.21606	  0.30837	  2.03987	  2.18492	 -0.16836	  4.84972	704.20300	 23.90	
 13.608	  7.147	  4.40010	  4.21145	  0.31296	  2.28885	  1.93831	 -0.17476	  4.84881	704.09900	 23.90	
 13.611	 14.417	  4.40434	  4.16928	  0.34991	  2.54049	  1.70386	 -0.18046	  4.85003	704.09900	 23.90	
 13.601	 21.647	  4.40447	  4.08637	  0.41300	  2.78739	  1.48161	 -0.18758	  4.84500	704.28998	 23.90	
 13.609	 28.790	  4.43026	  4.00216	  0.49594	  3.03724	  1.28415	 -0.18737	  4.86785	704.08899	 23.90	
 13.611	 36.001	  4.41409	  3.85273	  0.59785	  3.24955	  1.09238	 -0.18692	  4.84546	704.13702	 23.90	
 13.601	 43.175	  4.42461	  3.68851	  0.73362	  3.46105	  0.93069	 -0.18853	  4.84696	704.22198	 23.90	
 13.596	 50.360	  4.42165	  3.49564	  0.88377	  3.64516	  0.78371	 -0.18587	  4.83887	704.19598	 23.90	
 13.611	 57.569	  4.42688	  3.28760	  1.05796	  3.81453	  0.66019	 -0.18649	  4.84332	704.32898	 23.90	
 13.604	 64.789	  4.43884	  3.06615	  1.25649	  3.95817	  0.56186	 -0.18839	  4.85028	704.25800	 23.90	
 13.595	 71.958	  4.44318	  2.82508	  1.47154	  4.06394	  0.48934	 -0.19570	  4.84894	704.24103	 23.90	
 13.607	 79.207	  4.44816	  2.58073	  1.70066	  4.13678	  0.43999	 -0.20415	  4.84998	704.10602	 23.90	
 13.601	 86.383	  4.45575	  2.33479	  1.94053	  4.17933	  0.41630	 -0.20641	  4.85120	704.22498	 23.90	
 13.601	 93.617	  4.47271	  2.09427	  2.19703	  4.20025	  0.41477	 -0.20977	  4.87037	704.22699	 23.90	
 13.607	100.793	  4.46734	  1.85037	  2.44450	  4.16620	  0.43696	 -0.20684	  4.86037	704.19897	 23.90	
 13.595	108.042	  4.46629	  1.61586	  2.69348	  4.10225	  0.48140	 -0.20332	  4.85727	704.22400	 23.90	
 13.604	115.211	  4.45383	  1.39364	  2.93216	  3.99502	  0.54811	 -0.19422	  4.84406	704.18500	 23.90	
 13.611	122.431	  4.46330	  1.20510	  3.17164	  3.87474	  0.64921	 -0.17950	  4.85092	704.16901	 23.90	
 13.596	129.640	  4.47541	  1.02885	  3.40198	  3.72885	  0.77164	 -0.17260	  4.86542	704.20801	 23.90	
 13.601	136.825	  4.47243	  0.86641	  3.60107	  3.54335	  0.91021	 -0.16202	  4.86095	704.36603	 23.90	
 13.611	143.999	  4.46021	  0.72494	  3.76972	  3.33493	  1.06862	 -0.15538	  4.85196	704.31000	 23.90	
 13.609	151.210	  4.45113	  0.61011	  3.91380	  3.10975	  1.24844	 -0.15059	  4.84774	704.23901	 23.90	
 13.601	158.353	  4.45105	  0.52121	  4.03482	  2.87368	  1.45226	 -0.15188	  4.84925	704.13397	 23.90	
 13.611	165.583	  4.44294	  0.45057	  4.11971	  2.62462	  1.66838	 -0.15786	  4.84630	704.22498	 23.90	
 13.608	172.853	  4.44534	  0.40782	  4.17901	  2.37714	  1.90363	 -0.16854	  4.85423	704.34302	 23.90	
 15.298	173.587	  4.31249	  0.12511	  4.32245	  2.27271	  1.78838	 -0.20229	  4.84978	704.32001	 23.90	
 15.291	167.167	  4.31829	  0.16226	  4.27598	  2.52200	  1.56004	 -0.19431	  4.85157	704.25500	 23.90	
 15.307	160.676	  4.32515	  0.22226	  4.19938	  2.77350	  1.34075	 -0.18825	  4.85415	704.19598	 23.90	
 15.300	154.261	  4.33421	  0.30269	  4.09605	  3.02164	  1.13506	 -0.18503	  4.85784	704.25500	 23.90	
 15.288	147.854	  4.32285	  0.40398	  3.94582	  3.23931	  0.94415	 -0.18301	  4.84017	704.16901	 23.90	
 15.293	141.428	  4.32003	  0.52122	  3.78059	  3.44681	  0.77548	 -0.18746	  4.83420	704.23700	 23.90	
 15.299	134.985	  4.33069	  0.66127	  3.60429	  3.65464	  0.62357	 -0.19898	  4.84553	704.09601	 23.90	
 15.305	128.583	  4.33583	  0.82452	  3.40277	  3.83810	  0.49108	 -0.20384	  4.85088	704.22699	 23.90	
 15.309	122.142	  4.33125	  1.00323	  3.17810	  3.98593	  0.37942	 -0.21321	  4.84427	704.30103	 23.90	
 15.304	115.711	  4.32796	  1.19679	  2.94104	  4.10809	  0.29027	 -0.22023	  4.84112	704.20801	 23.90	
 15.297	109.291	  4.32489	  1.40573	  2.69532	  4.20362	  0.21967	 -0.22535	  4.83953	704.23401	 23.90	
 15.293	102.897	  4.33457	  1.63372	  2.45174	  4.28454	  0.17080	 -0.23069	  4.84984	704.26398	 23.90	
 15.293	 96.458	  4.34581	  1.87648	  2.20873	  4.33507	  0.14402	 -0.23506	  4.86445	704.23401	 23.90	
 15.300	 90.000	  4.31308	  2.10318	  1.94522	  4.31647	  0.13108	 -0.23618	  4.83623	704.24103	 23.90	
 15.293	 83.542	  4.32832	  2.36147	  1.71018	  4.31160	  0.14551	 -0.23583	  4.85530	704.24200	 23.90	
 15.293	 77.103	  4.32051	  2.60556	  1.47575	  4.25636	  0.17788	 -0.23262	  4.84891	704.26202	 23.90	
 15.297	 70.709	  4.31201	  2.84416	  1.25477	  4.16919	  0.23120	 -0.22554	  4.84278	704.21899	 23.90	
 15.304	 64.289	  4.31369	  3.09035	  1.04500	  4.06676	  0.30344	 -0.21469	  4.85178	704.30103	 23.90	
 15.309	 57.858	  4.31093	  3.31857	  0.84939	  3.93642	  0.39117	 -0.21500	  4.85729	704.17102	 23.90	
 15.305	 51.417	  4.29576	  3.52012	  0.67610	  3.76494	  0.50721	 -0.21516	  4.84623	704.15698	 23.90	
 15.299	 45.015	  4.29573	  3.71688	  0.52321	  3.57990	  0.64704	 -0.21678	  4.84923	704.25500	 23.90	
 15.293	 38.572	  4.29220	  3.88976	  0.39403	  3.37230	  0.80828	 -0.21068	  4.84902	704.32098	 23.90	
 15.288	 32.146	  4.28616	  4.03524	  0.28016	  3.15149	  0.98042	 -0.20760	  4.85022	704.00299	 23.90	
 15.300	 25.739	  4.27870	  4.15685	  0.18721	  2.91925	  1.16951	 -0.20069	  4.84926	704.03900	 23.90	
 15.307	 19.324	  4.27274	  4.24998	  0.11632	  2.67311	  1.37918	 -0.19393	  4.84595	704.22699	 23.90	
 15.291	 12.833	  4.28109	  4.32823	  0.06375	  2.42814	  1.61084	 -0.18912	  4.86017	704.16101	 23.90	
 15.298	  6.413	  4.26869	  4.35671	  0.03436	  2.17842	  1.83626	 -0.18506	  4.85352	704.11603	 23.90	
 15.300	  0.000	  4.25054	  4.34530	  0.02523	  1.92259	  2.06825	 -0.17531	  4.83297	704.18799	 23.90	
 15.298	 -6.413	  4.25117	  4.32649	  0.03831	  1.68655	  2.31626	 -0.17202	  4.83924	704.11499	 23.90	
 15.291	-12.833	  4.25389	  4.27543	  0.07640	  1.46078	  2.56157	 -0.17039	  4.84306	704.10901	 23.90	
 15.307	-19.324	  4.24690	  4.19039	  0.13078	  1.23398	  2.81030	 -0.16742	  4.83785	704.17999	 23.90	
 15.300	-25.739	  4.23543	  4.07310	  0.20831	  1.03042	  3.03868	 -0.16390	  4.83051	704.21600	 23.90	
 15.288	-32.146	  4.25790	  3.95602	  0.30886	  0.84825	  3.28214	 -0.16854	  4.85076	704.26398	 23.90	
 15.293	-38.572	  4.24514	  3.78456	  0.42411	  0.67445	  3.48969	 -0.17444	  4.83926	704.15698	 23.90	
 15.299	-45.015	  4.25384	  3.61161	  0.56062	  0.51917	  3.69810	 -0.17462	  4.85195	704.29602	 23.90	
 15.305	-51.417	  4.25068	  3.40491	  0.71520	  0.38842	  3.86753	 -0.17966	  4.84811	704.17200	 23.90	
 15.309	-57.858	  4.24417	  3.17701	  0.89424	  0.27902	  4.01460	 -0.18246	  4.84242	704.19299	 23.90	
 15.304	-64.289	  4.23872	  2.93940	  1.08606	  0.18639	  4.13759	 -0.18037	  4.83137	704.26703	 23.90	
 15.297	-70.709	  4.23646	  2.69414	  1.29887	  0.11952	  4.23498	 -0.18241	  4.83198	704.16803	 23.90	
 15.293	-77.103	  4.24562	  2.45362	  1.52274	  0.06826	  4.31570	 -0.18961	  4.84240	704.10901	 23.90	
 15.293	-83.542	  4.23227	  2.20132	  1.75052	  0.04077	  4.34426	 -0.19177	  4.82675	704.30298	 23.90	
 15.300	-90.000	  4.23773	  1.95456	  1.99326	  0.02953	  4.36205	 -0.19686	  4.83167	704.27301	 23.90	
 15.293	-96.458	  4.24283	  1.71965	  2.24405	  0.04882	  4.34419	 -0.20388	  4.83126	704.25897	 23.90	
 15.293	-102.897	  4.24367	  1.49130	  2.49118	  0.08290	  4.29543	 -0.20385	  4.82980	704.27002	 23.90	
 15.297	-109.291	  4.25267	  1.27682	  2.74006	  0.13898	  4.22520	 -0.20033	  4.83722	704.24799	 23.90	
 15.304	-115.711	  4.25434	  1.07628	  2.97939	  0.21808	  4.11861	 -0.19090	  4.83238	704.22400	 23.90	
 15.309	-122.142	  4.25734	  0.89002	  3.20948	  0.31766	  3.98578	 -0.18878	  4.83262	704.25000	 23.90	
 15.305	-128.583	  4.23704	  0.71714	  3.40701	  0.43218	  3.80633	 -0.18744	  4.80597	704.21600	 23.90	
 15.299	-134.985	  4.24280	  0.56908	  3.60810	  0.56812	  3.63279	 -0.18937	  4.80940	704.18597	 23.90	
 15.293	-141.428	  4.26329	  0.44316	  3.80072	  0.73137	  3.44375	 -0.19459	  4.82729	704.18500	 23.90	
 15.288	-147.854	  4.26629	  0.33171	  3.95611	  0.91090	  3.22139	 -0.19871	  4.82480	704.19598	 23.90	
 15.300	-154.261	  4.27611	  0.24688	  4.08844	  1.10188	  3.00104	 -0.20389	  4.83325	704.24799	 23.90	
 15.307	-160.676	  4.27781	  0.17836	  4.19389	  1.31081	  2.76068	 -0.20626	  4.83460	704.23401	 23.90	
 15.291	-167.167	  4.28583	  0.13548	  4.26692	  1.53957	  2.51242	 -0.21273	  4.83607	704.18597	 23.90	
 15.298	-173.587	  4.29169	  0.11104	  4.31395	  1.77675	  2.26761	 -0.21423	  4.83896	704.11603	 23.90	
 15.300	180.000	  4.30033	  0.11090	  4.33001	  2.01924	  2.02708	 -0.20897	  4.84057	704.20801	 23.90	
 17.000	180.000	  4.15106	 -0.16095	  4.45313	  1.90942	  1.90306	 -0.23148	  4.83528	704.35999	 23.90	
 16.990	-174.179	  4.15198	 -0.15691	  4.44634	  1.67267	  2.14811	 -0.23691	  4.84063	704.11798	 23.90	
 17.009	-168.383	  4.13915	 -0.13960	  4.40331	  1.43897	  2.38561	 -0.23562	  4.83561	704.22198	 23.90	
 17.000	-162.596	  4.11856	 -0.10540	  4.32273	  1.20766	  2.61937	 -0.23006	  4.82033	704.15399	 23.90	
 16.990	-156.759	  4.13055	 -0.04107	  4.24082	  0.99936	  2.87786	 -0.23000	  4.83368	704.16302	 23.90	
 16.995	-150.919	  4.13100	  0.04120	  4.12630	  0.80992	  3.11393	 -0.22653	  4.83557	704.06097	 23.90	
 16.988	-145.161	  4.12571	  0.13161	  3.98363	  0.62516	  3.33526	 -0.22364	  4.83451	704.20203	 23.90	
 17.014	-139.343	  4.10784	  0.23981	  3.80786	  0.45607	  3.53798	 -0.21948	  4.82081	704.13202	 23.90	
 17.007	-133.546	  4.12582	  0.37318	  3.64201	  0.31272	  3.74923	 -0.21229	  4.84406	704.16498	 23.90	
 17.001	-127.699	  4.11888	  0.52097	  3.43619	  0.17949	  3.92607	 -0.20859	  4.84097	704.14899	 23.90	
 17.006	-121.937	  4.10629	  0.68567	  3.21042	  0.06678	  4.07355	 -0.20463	  4.82978	704.24402	 23.90	
 17.002	-116.134	  4.10549	  0.86505	  2.98088	 -0.03173	  4.20949	 -0.20555	  4.83360	704.21399	 23.90	
 17.001	-110.310	  4.10112	  1.05924	  2.74350	 -0.11018	  4.31949	 -0.20514	  4.83466	704.32001	 23.90	
 16.988	-104.517	  4.11002	  1.27412	  2.50637	 -0.16128	  4.40486	 -0.20172	  4.84309	704.12299	 23.90	
 17.008	-98.662	  4.09328	  1.49571	  2.25313	 -0.19844	  4.44715	 -0.19609	  4.82879	704.15399	 23.90	
 16.996	-92.909	  4.09641	  1.72256	  2.01296	 -0.22213	  4.48063	 -0.19225	  4.83761	704.22400	 23.90	
 16.996	-87.091	  4.08519	  1.95621	  1.76746	 -0.22258	  4.47072	 -0.18671	  4.82396	704.13397	 23.90	
 17.012	-81.253	  4.08445	  2.20432	  1.52973	 -0.20974	  4.45361	 -0.18493	  4.82806	703.92401	 23.90	
 16.988	-75.483	  4.09115	  2.45109	  1.31009	 -0.17502	  4.41039	 -0.17606	  4.83572	704.06799	 23.90	
 17.001	-69.690	  4.08432	  2.69132	  1.09011	 -0.12972	  4.33274	 -0.17162	  4.83103	704.22400	 23.90	
 17.002	-63.866	  4.08320	  2.93028	  0.88643	 -0.06010	  4.22825	 -0.17215	  4.82866	704.03699	 23.90	
 17.006	-58.063	  4.08807	  3.16528	  0.69758	  0.02779	  4.10314	 -0.17405	  4.83405	704.07800	 23.90	
 17.001	-52.301	  4.08918	  3.38468	  0.52814	  0.13382	  3.95250	 -0.17663	  4.83260	704.08899	 23.90	
 17.007	-46.454	  4.08616	  3.59170	  0.37006	  0.25747	  3.77814	 -0.17049	  4.82967	704.06097	 23.90	
 17.014	-40.657	  4.06830	  3.76397	  0.23043	  0.39476	  3.57331	 -0.17195	  4.80783	704.11298	 23.90	
 16.988	-34.839	  4.09092	  3.95055	  0.11453	  0.55934	  3.38062	 -0.17339	  4.83060	704.20801	 23.90	
 16.995	-29.081	  4.09936	  4.10452	  0.01245	  0.73554	  3.16425	 -0.17301	  4.83782	704.08398	 23.90	
 16.990	-23.241	  4.10032	  4.22998	 -0.07336	  0.92477	  2.93386	 -0.17165	  4.83833	704.22699	 23.90	
 17.000	-17.404	  4.09347	  4.32266	 -0.14383	  1.12616	  2.68938	 -0.16973	  4.83106	704.05798	 23.90	
 17.009	-11.617	  4.09420	  4.39811	 -0.19525	  1.34227	  2.44463	 -0.16904	  4.83334	704.08398	 23.90	
 16.990	 -5.821	  4.09232	  4.43587	 -0.22089	  1.57032	  2.19739	 -0.17098	  4.82393	704.11200	 23.90	
 17.000	  0.000	  4.09765	  4.46435	 -0.23792	  1.80593	  1.95701	 -0.17608	  4.82920	704.14801	 23.90	
 16.990	  5.821	  4.12105	  4.47900	 -0.22910	  2.06045	  1.72692	 -0.18153	  4.85026	704.23401	 23.90	
 17.009	 11.617	  4.10568	  4.43232	 -0.20488	  2.29289	  1.49452	 -0.18633	  4.83044	704.21399	 23.90	
 17.000	 17.404	  4.12236	  4.38615	 -0.16436	  2.54680	  1.27690	 -0.19084	  4.84600	704.11298	 23.90	
 16.990	 23.241	  4.11084	  4.28466	 -0.10247	  2.78071	  1.06158	 -0.19486	  4.82356	704.21899	 23.90	
 16.995	 29.081	  4.11713	  4.17670	 -0.02273	  3.01940	  0.86671	 -0.20842	  4.82644	704.05798	 23.90	
 16.988	 34.839	  4.11942	  4.04312	  0.07553	  3.24245	  0.68897	 -0.21672	  4.82341	704.12299	 23.90	
 17.014	 40.657	  4.11777	  3.88065	  0.18612	  3.45698	  0.51863	 -0.22638	  4.81850	704.19598	 23.90	
 17.007	 46.454	  4.14694	  3.72785	  0.32289	  3.67605	  0.38035	 -0.23340	  4.84605	704.07800	 23.90	
 17.001	 52.301	  4.14587	  3.52214	  0.47335	  3.85219	  0.24861	 -0.23626	  4.83410	704.15399	 23.90	
 17.006	 58.063	  4.15124	  3.31180	  0.64049	  4.01149	  0.13723	 -0.23686	  4.83835	704.11298	 23.90	
 17.002	 63.866	  4.14249	  3.07690	  0.82393	  4.13808	  0.04379	 -0.24198	  4.82114	704.01898	 23.90	
 17.001	 69.690	  4.15116	  2.84426	  1.02773	  4.25898	 -0.03117	 -0.24612	  4.83272	704.09198	 23.90	
 16.988	 75.483	  4.15544	  2.60319	  1.24287	  4.34006	 -0.08132	 -0.24730	  4.82552	704.05798	 23.90	
 17.012	 81.253	  4.14957	  2.35618	  1.46193	  4.39339	 -0.12158	 -0.24724	  4.81744	704.08398	 23.90	
 16.996	 87.091	  4.17384	  2.12001	  1.70502	  4.44684	 -0.14153	 -0.24989	  4.84049	704.09003	 23.90	
 16.996	 92.909	  4.16841	  1.87518	  1.94625	  4.44159	 -0.13818	 -0.24815	  4.82981	704.19397	 23.90	
 17.008	 98.662	  4.17004	  1.63882	  2.18906	  4.42356	 -0.12739	 -0.24118	  4.83062	704.22998	 23.90	
 16.988	104.517	  4.17061	  1.40891	  2.43820	  4.37022	 -0.09224	 -0.23941	  4.82684	704.16101	 23.90	
 17.001	110.310	  4.17003	  1.19156	  2.68633	  4.29596	 -0.03960	 -0.23624	  4.82311	704.16101	 23.90	
 17.002	116.134	  4.17922	  0.99272	  2.93287	  4.20039	  0.03490	 -0.23428	  4.83126	704.04999	 23.90	
 17.006	121.937	  4.18069	  0.80166	  3.16615	  4.07239	  0.12383	 -0.22949	  4.83082	704.06097	 23.90	
 17.001	127.699	  4.18031	  0.62655	  3.38947	  3.92368	  0.22754	 -0.22792	  4.83002	704.06702	 23.90	
 17.007	133.546	  4.17840	  0.46375	  3.59790	  3.75414	  0.34504	 -0.22330	  4.83305	704.11200	 23.90	
 17.014	139.343	  4.18029	  0.32271	  3.78940	  3.56391	  0.48817	 -0.22026	  4.83615	704.10101	 23.90	
 16.988	145.161	  4.17566	  0.20670	  3.95386	  3.34761	  0.65349	 -0.21513	  4.82826	704.07501	 23.90	
 16.995	150.919	  4.18276	  0.10105	  4.11320	  3.13473	  0.83038	 -0.21243	  4.84459	704.17999	 23.90	
 16.990	156.759	  4.15555	  0.01452	  4.21234	  2.88498	  1.01215	 -0.20983	  4.81552	704.15503	 23.90	
 17.000	162.596	  4.15063	 -0.06270	  4.31276	  2.64179	  1.21500	 -0.21564	  4.81812	703.97803	 23.90	
 17.009	168.383	  4.12729	 -0.10999	  4.36219	  2.38453	  1.42819	 -0.21948	  4.79680	704.11798	 23.90	
 16.990	174.179	  4.14566	 -0.14353	  4.42552	  2.15383	  1.65942	 -0.22702	  4.82235	704.09198	 23.90	
 18.709	174.675	  3.97971	 -0.40399	  4.53035	  2.03189	  1.53390	 -0.24007	  4.81503	704.22998	 23.90	
 18.703	169.441	  4.00281	 -0.37719	  4.51367	  2.27978	  1.32155	 -0.24158	  4.83600	704.08398	 23.90	
 18.691	164.085	  4.00063	 -0.32599	  4.43718	  2.51982	  1.10440	 -0.23694	  4.82161	704.05902	 23.90	
 18.706	158.818	  4.01922	 -0.26578	  4.36794	  2.77284	  0.90138	 -0.23649	  4.84190	704.14099	 23.90	
 18.695	153.537	  4.02317	 -0.18458	  4.25304	  3.00665	  0.71716	 -0.23323	  4.83717	704.15399	 23.90	
 18.704	148.255	  4.01595	 -0.09457	  4.11032	  3.22899	  0.53582	 -0.23325	  4.82604	704.09302	 23.90	
 18.698	142.952	  4.02878	  0.01483	  3.96091	  3.45576	  0.37039	 -0.23393	  4.83881	704.07599	 23.90	
 18.699	137.625	  4.01931	  0.13652	  3.77402	  3.65216	  0.21854	 -0.23335	  4.82871	704.11603	 23.90	
 18.705	132.343	  4.01261	  0.27579	  3.57564	  3.82766	  0.09067	 -0.23500	  4.81582	704.12903	 23.90	
 18.713	127.067	  4.02209	  0.43138	  3.37443	  4.00762	 -0.02810	 -0.23451	  4.83181	704.24799	 23.90	
 18.700	121.794	  4.02453	  0.60342	  3.15123	  4.15645	 -0.12851	 -0.23380	  4.82895	704.15698	 23.90	
 18.698	116.504	  4.02334	  0.78728	  2.91944	  4.28392	 -0.21364	 -0.23408	  4.82971	704.19397	 23.90	
 18.707	111.165	  4.01714	  0.98197	  2.67492	  4.38284	 -0.28739	 -0.23914	  4.82747	704.14398	 23.90	
 18.690	105.863	  4.01131	  1.18908	  2.42909	  4.45801	 -0.34181	 -0.23207	  4.82573	704.09003	 23.90	
 18.696	100.583	  4.01696	  1.41447	  2.18739	  4.51748	 -0.37254	 -0.22888	  4.83015	704.04199	 23.90	
 18.700	 95.309	  4.01725	  1.64728	  1.94391	  4.55063	 -0.39295	 -0.23360	  4.83449	704.03699	 23.90	
 18.700	 90.000	  4.01271	  1.88006	  1.70085	  4.55418	 -0.39942	 -0.24186	  4.83176	704.09003	 23.90	
 18.700	 84.691	  4.00310	  2.11961	  1.46347	  4.52969	 -0.38755	 -0.24584	  4.82298	704.04199	 23.90	
 18.696	 79.417	  4.00557	  2.36574	  1.23695	  4.49237	 -0.36369	 -0.25258	  4.83144	704.10101	 23.90	
 18.690	 74.137	  3.99477	  2.59998	  1.01989	  4.41797	 -0.32185	 -0.25476	  4.82136	704.07300	 23.90	
 18.707	 68.835	  3.98200	  2.83428	  0.80982	  4.32212	 -0.26651	 -0.25481	  4.81482	703.98798	 23.90	
 18.698	 63.496	  3.97787	  3.06887	  0.61158	  4.20756	 -0.19842	 -0.25073	  4.81580	704.12402	 23.90	
 18.700	 58.206	  3.98015	  3.29517	  0.43302	  4.07647	 -0.11269	 -0.25109	  4.81973	704.12402	 23.90	
 18.713	 52.933	  3.97240	  3.50591	  0.26753	  3.91654	 -0.00653	 -0.24664	  4.81816	704.17999	 23.90	
 18.705	 47.657	  3.97911	  3.71127	  0.12225	  3.74568	  0.11579	 -0.24299	  4.82639	704.08899	 23.90	
 18.699	 42.375	  3.97230	  3.89247	 -0.01033	  3.55166	  0.25362	 -0.23745	  4.82735	704.10901	 23.90	
 18.698	 37.048	  3.95673	  4.04259	 -0.12715	  3.33129	  0.40191	 -0.22623	  4.81486	703.99597	 23.90	
 18.704	 31.745	  3.95721	  4.19363	 -0.23089	  3.11428	  0.57107	 -0.20935	  4.82246	704.11603	 23.90	
 18.695	 26.463	  3.95988	  4.32142	 -0.31355	  2.88537	  0.75886	 -0.20042	  4.82709	704.03601	 23.90	
 18.706	 21.182	  3.94697	  4.41409	 -0.38393	  2.64592	  0.94646	 -0.18731	  4.82623	704.08899	 23.90	
 18.691	 15.915	  3.94157	  4.48362	 -0.43694	  2.40081	  1.15286	 -0.18135	  4.81849	704.14600	 23.90	
 18.703	 10.559	  3.93606	  4.53489	 -0.47330	  2.15340	  1.37475	 -0.17570	  4.81864	704.10602	 23.90	
 18.709	  5.325	  3.92661	  4.55594	 -0.49736	  1.91287	  1.59052	 -0.16947	  4.81321	704.01898	 23.90	
 18.700	  0.000	  3.92997	  4.56536	 -0.50025	  1.67449	  1.83388	 -0.17091	  4.82001	704.12903	 23.90	
 18.709	 -5.325	  3.92933	  4.54837	 -0.49347	  1.44095	  2.07167	 -0.16591	  4.82146	704.04498	 23.90	
 18.703	-10.559	  3.91626	  4.49265	 -0.46650	  1.21643	  2.30122	 -0.16531	  4.80864	704.08197	 23.90	
 18.691	-15.915	  3.93094	  4.44019	 -0.41962	  1.00603	  2.55745	 -0.16839	  4.82650	704.14099	 23.90	
 18.706	-21.182	  3.91412	  4.33466	 -0.36184	  0.79932	  2.78350	 -0.16452	  4.80917	704.04999	 23.90	
 18.695	-26.463	  3.92006	  4.22947	 -0.28849	  0.61200	  3.02141	 -0.17127	  4.81840	704.17700	 23.90	
 18.704	-31.745	  3.91806	  4.09781	 -0.20089	  0.42902	  3.24972	 -0.16332	  4.82003	704.16302	 23.90	
 18.698	-37.048	  3.90765	  3.93046	 -0.09392	  0.26649	  3.45659	 -0.16580	  4.80875	704.28900	 23.90	
 18.699	-42.375	  3.91951	  3.76488	  0.02881	  0.12113	  3.66752	 -0.16398	  4.82134	704.16498	 23.90	
 18.705	-47.657	  3.92337	  3.57713	  0.16447	 -0.01126	  3.85797	 -0.16677	  4.82733	704.11798	 23.90	
 18.713	-52.933	  3.91582	  3.36345	  0.31443	 -0.13322	  4.02351	 -0.16679	  4.82136	704.24200	 23.90	
 18.700	-58.206	  3.92385	  3.14828	  0.48661	 -0.22764	  4.17685	 -0.16759	  4.82984	704.05103	 23.90	
 18.698	-63.496	  3.91596	  2.91230	  0.66819	 -0.30991	  4.29099	 -0.16318	  4.81739	704.15198	 23.90	
 18.707	-68.835	  3.90796	  2.66861	  0.86252	 -0.37917	  4.38723	 -0.16208	  4.81012	704.14398	 23.90	
 18.690	-74.137	  3.91972	  2.43007	  1.07872	 -0.43107	  4.47854	 -0.16380	  4.81934	704.19098	 23.90	
 18.696	-79.417	  3.91436	  2.18581	  1.29710	 -0.46563	  4.53112	 -0.16008	  4.81738	704.14801	 23.90	
 18.700	-84.691	  3.92043	  1.94714	  1.52451	 -0.48621	  4.56867	 -0.16727	  4.82118	704.03101	 23.90	
 18.700	-90.000	  3.91578	  1.70250	  1.75844	 -0.49428	  4.57114	 -0.16838	  4.81400	704.26398	 23.90	
 18.700	-95.309	  3.91854	  1.46897	  2.00107	 -0.48234	  4.55699	 -0.18295	  4.81449	704.07001	 23.90	
 18.696	-100.583	  3.92564	  1.25167	  2.24377	 -0.45537	  4.52371	 -0.18618	  4.82084	704.16101	 23.90	
 18.690	-105.863	  3.93256	  1.04046	  2.49083	 -0.40930	  4.46699	 -0.19444	  4.82406	704.21399	 23.90	
 18.707	-111.165	  3.93037	  0.83727	  2.72866	 -0.35569	  4.38059	 -0.20277	  4.82085	704.13202	 23.90	
 18.698	-116.504	  3.94104	  0.64939	  2.97053	 -0.27864	  4.27511	 -0.20829	  4.82718	704.21100	 23.90	
 18.700	-121.794	  3.93500	  0.47283	  3.19197	 -0.18888	  4.13652	 -0.21539	  4.81572	704.16101	 23.90	
 18.713	-127.067	  3.92915	  0.30947	  3.40135	 -0.08220	  3.97641	 -0.21993	  4.80551	704.10602	 23.90	
 18.705	-132.343	  3.94362	  0.16799	  3.61418	  0.04575	  3.81019	 -0.22773	  4.81970	704.13000	 23.90	
 18.699	-137.625	  3.94319	  0.03672	  3.80023	  0.18392	  3.61555	 -0.23358	  4.81145	704.14899	 23.90	
 18.698	-142.952	  3.95160	 -0.07281	  3.97437	  0.33947	  3.41495	 -0.23608	  4.81879	704.23700	 23.90	
 18.704	-148.255	  3.94834	 -0.17537	  4.12084	  0.50549	  3.19203	 -0.23806	  4.81104	704.27802	 23.90	
 18.695	-153.537	  3.95870	 -0.24961	  4.25316	  0.69400	  2.96720	 -0.24079	  4.81561	704.18298	 23.90	
 18.706	-158.818	  3.96253	 -0.31883	  4.36235	  0.88918	  2.73085	 -0.24255	  4.81923	704.14899	 23.90	
 18.691	-164.085	  3.96585	 -0.36634	  4.44072	  1.09526	  2.49344	 -0.24543	  4.81569	704.20801	 23.90	
 18.703	-169.441	  3.96448	 -0.39882	  4.49579	  1.32360	  2.24332	 -0.24648	  4.81042	704.13702	 23.90	
 18.709	-174.675	  3.96976	 -0.41798	  4.53187	  1.54654	  2.00471	 -0.24330	  4.81132	704.12097	 23.90	
 18.700	180.000	  3.97945	 -0.41605	  4.54505	  1.78591	  1.77183	 -0.24069	  4.81508	704.12299	 23.90	
 20.400	180.000	  3.80565	 -0.70089	  4.64479	  1.64876	  1.62575	 -0.23315	  4.82401	704.04498	 23.90	
 20.401	-175.153	  3.78679	 -0.69790	  4.62058	  1.41224	  1.85226	 -0.22774	  4.80643	703.98602	 23.90	
 20.407	-170.264	  3.78567	 -0.68419	  4.59223	  1.18482	  2.09433	 -0.23072	  4.81013	704.15399	 23.90	
 20.410	-165.423	  3.78001	 -0.65727	  4.53864	  0.96257	  2.33314	 -0.23070	  4.80978	704.17700	 23.90	
 20.392	-160.496	  3.77690	 -0.61102	  4.45999	  0.75453	  2.57502	 -0.22515	  4.80981	704.25098	 23.90	
 20.401	-155.705	  3.76386	 -0.56049	  4.36006	  0.55696	  2.80021	 -0.22938	  4.80264	704.11499	 23.90	
 20.405	-150.835	  3.76888	 -0.48864	  4.25048	  0.36976	  3.04090	 -0.23274	  4.81102	704.13000	 23.90	
 20.397	-145.903	  3.77113	 -0.40115	  4.11500	  0.19741	  3.27038	 -0.23280	  4.81785	704.20001	 23.90	
 20.392	-141.062	  3.76671	 -0.30198	  3.95533	  0.04059	  3.47931	 -0.23598	  4.81565	704.17102	 23.90	
 20.396	-136.227	  3.76304	 -0.19188	  3.78015	 -0.11043	  3.68382	 -0.23034	  4.81725	704.17499	 23.90	
 20.408	-131.372	  3.76151	 -0.06874	  3.59163	 -0.24821	  3.87647	 -0.22366	  4.82283	704.15399	 23.90	
 20.410	-126.511	  3.75678	  0.07657	  3.38409	 -0.36404	  4.04397	 -0.21368	  4.82373	704.21399	 23.90	
 20.400	-121.604	  3.75410	  0.23746	  3.16545	 -0.46276	  4.19538	 -0.20754	  4.82080	704.17102	 23.90	
 20.403	-116.741	  3.74334	  0.40828	  2.93140	 -0.54951	  4.31927	 -0.20013	  4.81083	704.12598	 23.90	
 20.413	-111.900	  3.73107	  0.58224	  2.69187	 -0.62700	  4.42084	 -0.19304	  4.80315	704.06702	 23.90	
 20.398	-107.004	  3.73754	  0.78371	  2.45523	 -0.68730	  4.52124	 -0.18249	  4.81678	704.22400	 23.90	
 20.394	-102.132	  3.71883	  0.98563	  2.20331	 -0.73339	  4.57199	 -0.17086	  4.79732	704.10101	 23.90	
 20.403	-97.332	  3.72851	  1.20188	  1.97388	 -0.76548	  4.62980	 -0.15473	  4.81297	704.17499	 23.90	
 20.392	-92.440	  3.72219	  1.42628	  1.72980	 -0.78223	  4.64723	 -0.15215	  4.80626	704.14899	 23.90	
 20.392	-87.560	  3.72736	  1.66422	  1.49512	 -0.78473	  4.65761	 -0.14904	  4.81531	704.14398	 23.90	
 20.403	-82.668	  3.72838	  1.90487	  1.26457	 -0.77832	  4.64526	 -0.15380	  4.82085	704.14899	 23.90	
 20.394	-77.868	  3.71190	  2.13495	  1.04162	 -0.74882	  4.58649	 -0.14876	  4.79805	704.20001	 23.90	
 20.398	-72.996	  3.71945	  2.38418	  0.82650	 -0.71328	  4.53684	 -0.14647	  4.81387	704.21100	 23.90	
 20.413	-68.100	  3.72617	  2.63152	  0.62165	 -0.65943	  4.46043	 -0.14931	  4.82010	704.14600	 23.90	
 20.403	-63.259	  3.72370	  2.86356	  0.43581	 -0.58743	  4.34775	 -0.14383	  4.81195	704.14600	 23.90	
 20.400	-58.396	  3.72976	  3.09675	  0.25782	 -0.50401	  4.22598	 -0.15449	  4.81480	704.15399	 23.90	
 20.410	-53.489	  3.71518	  3.30852	  0.08927	 -0.41266	  4.06782	 -0.15349	  4.80109	704.15399	 23.90	
 20.408	-48.628	  3.71875	  3.52186	 -0.06128	 -0.30382	  3.90788	 -0.15009	  4.80743	704.16803	 23.90	
 20.396	-43.773	  3.71610	  3.71308	 -0.19598	 -0.17561	  3.71889	 -0.15593	  4.79919	704.11798	 23.90	
 20.392	-38.938	  3.72577	  3.90579	 -0.31813	 -0.03656	  3.53210	 -0.15129	  4.81303	704.22400	 23.90	
 20.397	-34.097	  3.72573	  4.06907	 -0.42601	  0.11357	  3.32481	 -0.15608	  4.81219	704.17200	 23.90	
 20.405	-29.165	  3.72511	  4.21338	 -0.52067	  0.27903	  3.09988	 -0.15400	  4.80757	704.19598	 23.90	
 20.401	-24.295	  3.72778	  4.33946	 -0.59825	  0.46456	  2.87032	 -0.15585	  4.80682	704.13800	 23.90	
 20.392	-19.504	  3.73544	  4.44666	 -0.66173	  0.65418	  2.64195	 -0.15640	  4.81289	704.21399	 23.90	
 20.410	-14.577	  3.72196	  4.51371	 -0.71457	  0.85408	  2.39331	 -0.15491	  4.79924	704.30402	 23.90	
 20.407	 -9.736	  3.72157	  4.56785	 -0.74733	  1.06873	  2.15071	 -0.15145	  4.78990	704.26703	 23.90	
 20.401	 -4.847	  3.73870	  4.62610	 -0.77347	  1.29561	  1.91933	 -0.15224	  4.81048	704.20300	 23.90	
 20.400	  0.000	  3.74054	  4.64502	 -0.78443	  1.52180	  1.68562	 -0.15942	  4.80997	704.26398	 23.90	
 20.401	  4.847	  3.74349	  4.64487	 -0.78227	  1.76026	  1.45096	 -0.15911	  4.80988	704.21399	 23.90	
 20.407	  9.736	  3.75156	  4.62735	 -0.76305	  2.00160	  1.23137	 -0.16092	  4.81582	704.32898	 23.90	
 20.410	 14.577	  3.76186	  4.58951	 -0.73160	  2.24491	  1.01833	 -0.16616	  4.82218	704.14801	 23.90	
 20.392	 19.504	  3.75578	  4.50788	 -0.68211	  2.48649	  0.80615	 -0.17278	  4.81263	704.15698	 23.90	
 20.401	 24.295	  3.76479	  4.42629	 -0.62269	  2.72493	  0.61519	 -0.18347	  4.81327	704.07001	 23.90	
 20.405	 29.165	  3.76820	  4.31879	 -0.54899	  2.95895	  0.43192	 -0.18737	  4.81710	704.24799	 23.90	
 20.397	 34.097	  3.76111	  4.17203	 -0.45372	  3.17996	  0.25937	 -0.19878	  4.79957	704.21698	 23.90	
 20.392	 38.938	  3.77788	  4.03254	 -0.35102	  3.40465	  0.10628	 -0.21320	  4.81340	704.19397	 23.90	
 20.396	 43.773	  3.78465	  3.86582	 -0.23273	  3.60705	 -0.03229	 -0.22615	  4.81071	704.26398	 23.90	
 20.408	 48.628	  3.78709	  3.68237	 -0.10334	  3.79877	 -0.16515	 -0.23553	  4.81133	704.14099	 23.90	
 20.410	 53.489	  3.78189	  3.47298	  0.03826	  3.96631	 -0.28612	 -0.23898	  4.80104	704.14001	 23.90	
 20.400	 58.396	  3.80149	  3.27128	  0.20439	  4.14009	 -0.38310	 -0.24699	  4.81916	704.20300	 23.90	
 20.403	 63.259	  3.80157	  3.04305	  0.37663	  4.27213	 -0.47150	 -0.24924	  4.81495	704.16101	 23.90	
 20.413	 68.100	  3.80200	  2.81074	  0.56287	  4.38278	 -0.54049	 -0.24797	  4.80888	704.38000	 23.90	
 20.398	 72.996	  3.80993	  2.57374	  0.76557	  4.48111	 -0.59711	 -0.24890	  4.81279	704.27899	 23.90	
 20.394	 77.868	  3.81931	  2.33972	  0.97941	  4.55858	 -0.63902	 -0.24276	  4.82154	704.35101	 23.90	
 20.403	 82.668	  3.81882	  2.10018	  1.19970	  4.59787	 -0.65913	 -0.23835	  4.81105	704.34802	 23.90	
 20.392	 87.560	  3.82337	  1.85921	  1.43297	  4.62669	 -0.67575	 -0.22544	  4.81518	704.19299	 23.90	
 20.392	 92.440	  3.83326	  1.62704	  1.67161	  4.63984	 -0.67796	 -0.22080	  4.82397	704.27802	 23.90	
 20.403	 97.332	  3.82682	  1.39058	  1.90814	  4.61626	 -0.66798	 -0.20940	  4.81093	704.29303	 23.90	
 20.394	102.132	  3.83295	  1.17731	  2.15087	  4.57813	 -0.63385	 -0.21042	  4.81326	704.30402	 23.90	
 20.398	107.004	  3.83208	  0.96596	  2.39336	  4.51299	 -0.59119	 -0.21755	  4.80549	704.23901	 23.90	
 20.413	111.900	  3.82740	  0.75720	  2.63245	  4.42794	 -0.54117	 -0.21716	  4.80051	704.20001	 23.90	
 20.403	116.741	  3.84540	  0.56872	  2.88041	  4.34596	 -0.47895	 -0.22189	  4.82224	704.30103	 23.90	
 20.400	121.604	  3.83823	  0.38558	  3.10604	  4.21459	 -0.40108	 -0.22842	  4.81265	704.15399	 23.90	
 20.410	126.511	  3.84128	  0.21821	  3.33173	  4.07025	 -0.30501	 -0.22998	  4.81723	704.37402	 23.90	
 20.408	131.372	  3.84260	  0.06560	  3.54454	  3.90456	 -0.19263	 -0.23416	  4.81696	704.15698	 23.90	
 20.396	136.227	  3.84197	 -0.06869	  3.74154	  3.71893	 -0.06117	 -0.23448	  4.81567	704.25500	 23.90	
 20.392	141.062	  3.84034	 -0.19215	  3.92146	  3.52225	  0.07392	 -0.23371	  4.81406	704.25800	 23.90	
 20.397	145.903	  3.82730	 -0.30863	  4.07591	  3.30554	  0.21945	 -0.23288	  4.80512	704.17700	 23.90	
 20.405	150.835	  3.82726	 -0.40673	  4.22703	  3.08126	  0.38897	 -0.23400	  4.81001	704.16498	 23.90	
 20.401	155.705	  3.82300	 -0.48652	  4.34942	  2.84876	  0.56949	 -0.23604	  4.80868	704.21399	 23.90	
 20.392	160.496	  3.81477	 -0.55450	  4.44443	  2.61481	  0.75521	 -0.23551	  4.80418	704.02698	 23.90	
 20.410	165.423	  3.79996	 -0.61032	  4.51534	  2.36172	  0.95976	 -0.23773	  4.79456	704.14899	 23.90	
 20.407	170.264	  3.80651	 -0.65306	  4.58464	  2.12668	  1.17361	 -0.23953	  4.80740	704.24799	 23.90	
 20.401	175.153	  3.79204	 -0.67691	  4.60431	  1.88231	  1.39155	 -0.23011	  4.79674	704.28101	 23.90	
  0.141	 45.000	  4.81933	  2.58526	  2.51004	  2.52927	  2.58227	  0.03445	  4.80594	704.29498	 23.90	
  4.001	128.691	  4.80747	  2.18558	  2.81630	  2.91291	  2.11388	  0.00982	  4.81095	704.21698	 23.90	
  4.002	 76.995	  4.79705	  2.64921	  2.32345	  3.01120	  2.02012	  0.00619	  4.80418	704.25000	 23.90	
  4.002	 25.892	  4.79369	  3.03989	  1.96510	  2.68568	  2.29183	  0.00497	  4.80693	704.22699	 23.90	
  4.002	-25.892	  4.78578	  3.02077	  1.96665	  2.19197	  2.78476	  0.00729	  4.80481	704.27502	 23.90	
  4.002	-76.995	  4.79113	  2.61747	  2.33215	  1.92193	  3.10494	 -0.00004	  4.80420	704.24200	 23.90	
  4.001	-128.691	  4.78931	  2.14793	  2.82170	  2.02944	  2.97857	  0.00086	  4.79979	704.45203	 23.90	
  4.000	180.000	  4.80139	  1.97886	  3.05025	  2.45990	  2.52712	  0.01444	  4.81016	704.32001	 23.90	
  8.000	180.000	  4.69086	  1.32035	  3.55904	  2.35396	  2.40313	 -0.04788	  4.79518	704.29602	 23.90	
  7.991	-152.370	  4.68170	  1.41643	  3.41881	  1.83092	  2.94733	 -0.05036	  4.79614	704.27197	 23.90	
  7.997	-124.550	  4.68833	  1.73755	  3.03201	  1.44129	  3.40198	 -0.06173	  4.80640	704.41101	 23.90	
  8.006	-96.837	  4.68207	  2.22121	  2.49431	  1.25941	  3.61810	 -0.07605	  4.80834	704.48700	 23.90	
  7.988	-69.228	  4.67366	  2.77540	  1.94877	  1.30846	  3.54884	 -0.06827	  4.80477	704.32397	 23.90	
  7.997	-41.563	  4.67385	  3.26373	  1.51699	  1.57640	  3.21903	 -0.06037	  4.80688	704.33698	 23.90	
  8.008	-13.821	  4.66171	  3.54876	  1.27742	  2.03158	  2.69704	 -0.05241	  4.79381	704.14398	 23.90	
  8.008	 13.821	  4.68224	  3.57849	  1.27437	  2.59167	  2.15241	 -0.05997	  4.80822	704.11200	 23.90	
  7.997	 41.563	  4.69890	  3.32071	  1.50509	  3.11318	  1.69641	 -0.06565	  4.80996	704.26202	 23.90	
  7.988	 69.228	  4.69998	  2.84374	  1.92554	  3.45814	  1.41284	 -0.06205	  4.80173	704.22699	 23.90	
  8.006	 96.837	  4.70546	  2.29404	  2.46509	  3.54537	  1.35590	 -0.06418	  4.80174	704.11200	 23.90	
  7.997	124.550	  4.71360	  1.80308	  3.01020	  3.34863	  1.52313	 -0.05387	  4.80555	704.32703	 23.90	
  7.991	152.370	  4.71849	  1.46357	  3.42124	  2.91514	  1.89813	 -0.03913	  4.81697	704.15399	 23.90	
 12.009	161.059	  4.51285	  0.74268	  3.89745	  2.76495	  1.67673	 -0.12115	  4.80741	704.23297	 23.90	
 12.013	142.081	  4.52423	  0.98765	  3.59283	  3.30427	  1.22232	 -0.12784	  4.81001	704.20801	 23.90	
 12.006	123.113	  4.52500	  1.36706	  3.12881	  3.70836	  0.90034	 -0.14441	  4.80324	704.24200	 23.90	
 12.007	104.200	  4.52651	  1.85957	  2.57509	  3.95230	  0.71635	 -0.16273	  4.80914	704.19397	 23.90	
 11.989	 85.301	  4.51206	  2.41366	  1.99588	  3.97895	  0.68386	 -0.16780	  4.80038	704.24701	 23.90	
 12.013	 66.294	  4.50071	  2.97537	  1.46288	  3.80950	  0.79709	 -0.15096	  4.79796	704.25098	 23.90	
 12.012	 47.388	  4.48771	  3.47052	  1.03318	  3.45456	  1.06396	 -0.15350	  4.79575	704.21399	 23.90	
 11.990	 28.440	  4.47498	  3.82810	  0.73801	  2.96601	  1.46158	 -0.15119	  4.79663	704.17200	 23.90	
 11.991	  9.464	  4.47305	  4.01470	  0.59037	  2.40619	  1.97044	 -0.15121	  4.80506	704.25598	 23.90	
 11.991	 -9.464	  4.46056	  3.99141	  0.59556	  1.83806	  2.53281	 -0.13313	  4.79842	704.14600	 23.90	
 11.990	-28.440	  4.46443	  3.77978	  0.75890	  1.33421	  3.09735	 -0.12826	  4.80729	704.23901	 23.90	
 12.012	-47.388	  4.45271	  3.38400	  1.06099	  0.93876	  3.56530	 -0.14303	  4.79425	704.19897	 23.90	
 12.013	-66.294	  4.46191	  2.87381	  1.50070	  0.68190	  3.90488	 -0.15230	  4.80522	704.21399	 23.90	
 11.989	-85.301	  4.45640	  2.30016	  2.03296	  0.58124	  4.03736	 -0.16410	  4.79260	704.17499	 23.90	
 12.007	-104.200	  4.47783	  1.75318	  2.61493	  0.62788	  3.99791	 -0.16246	  4.81341	704.25897	 23.90	
 12.006	-123.113	  4.48129	  1.27453	  3.16285	  0.82396	  3.74450	 -0.13776	  4.80772	704.13000	 23.90	
 12.013	-142.081	  4.48398	  0.91921	  3.61135	  1.17126	  3.31685	 -0.13312	  4.80247	704.17200	 23.90	
 12.009	-161.059	  4.49987	  0.70768	  3.91438	  1.64388	  2.78901	 -0.13379	  4.81104	704.21698	 23.90	
 16.000	180.000	  4.20438	 -0.00558	  4.34598	  1.95641	  1.95953	 -0.21548	  4.79476	704.19397	 23.90	
 15.990	-165.604	  4.19971	  0.03105	  4.27672	  1.41306	  2.52688	 -0.22070	  4.80083	704.27002	 23.90	
 16.002	-151.165	  4.19233	  0.17832	  4.05154	  0.92428	  3.08843	 -0.20982	  4.80691	704.20001	 23.90	
 16.002	-136.836	  4.18171	  0.42800	  3.68379	  0.51693	  3.58992	 -0.20402	  4.80319	704.16901	 23.90	
 15.995	-122.439	  4.17248	  0.78676	  3.20599	  0.21711	  3.98594	 -0.19604	  4.79980	704.14801	 23.90	
 15.993	-107.966	  4.17723	  1.24162	  2.66280	  0.01691	  4.27290	 -0.20494	  4.81121	704.17902	 23.80	
 16.005	-93.629	  4.15933	  1.75815	  2.08421	 -0.07469	  4.38424	 -0.20292	  4.80182	704.25500	 23.90	
 15.992	-79.234	  4.15524	  2.32280	  1.52791	 -0.05254	  4.35350	 -0.18312	  4.80527	704.22400	 23.90	
 16.009	-64.774	  4.15301	  2.89307	  1.02051	  0.07068	  4.16902	 -0.17729	  4.80241	704.24701	 23.90	
 15.997	-50.364	  4.16004	  3.42343	  0.59774	  0.30882	  3.84320	 -0.17664	  4.80896	704.32001	 23.90	
 15.997	-36.045	  4.16445	  3.86266	  0.27661	  0.64718	  3.40003	 -0.17239	  4.80899	704.22998	 23.90	
 16.000	-21.597	  4.15303	  4.16352	  0.05206	  1.07477	  2.86138	 -0.16921	  4.79736	704.17499	 23.90	
 16.003	 -7.169	  4.16978	  4.34963	 -0.06684	  1.59224	  2.29795	 -0.17187	  4.80940	704.31403	 23.90	
 16.003	  7.169	  4.17908	  4.37476	 -0.07429	  2.15378	  1.73809	 -0.18926	  4.81528	704.30902	 23.90	
 16.000	 21.597	  4.17322	  4.22315	  0.02923	  2.71920	  1.21555	 -0.19568	  4.79464	704.34003	 23.90	
 15.997	 36.045	  4.19640	  3.95473	  0.23991	  3.26630	  0.77986	 -0.21494	  4.80530	704.22198	 23.90	
 15.997	 50.364	  4.20635	  3.54471	  0.55011	  3.73447	  0.42515	 -0.22362	  4.80533	704.32898	 23.90	
 16.009	 64.774	  4.21453	  3.03951	  0.96643	  4.08243	  0.18164	 -0.22717	  4.80275	704.23700	 23.90	
 15.992	 79.234	  4.23158	  2.48112	  1.47131	  4.29822	  0.04618	 -0.24023	  4.80991	704.29498	 23.90	
 16.005	 93.629	  4.23089	  1.90505	  2.02494	  4.34519	  0.01343	 -0.24073	  4.80401	704.27802	 23.90	
 15.993	107.966	  4.23958	  1.37364	  2.60541	  4.24113	  0.09488	 -0.23058	  4.80306	704.11603	 23.90	
 15.995	122.439	  4.24080	  0.90543	  3.16474	  3.98280	  0.27911	 -0.21933	  4.80133	704.24402	 23.90	
 16.002	136.836	  4.24992	  0.52223	  3.66142	  3.60151	  0.56287	 -0.20465	  4.81457	704.22498	 23.90	
 16.002	151.165	  4.24008	  0.24300	  4.03696	  3.10562	  0.94867	 -0.19338	  4.81080	704.21002	 23.90	
 15.990	165.604	  4.21838	  0.06525	  4.26342	  2.53223	  1.42482	 -0.20318	  4.79475	704.30103	 23.90	
 20.003	168.362	  3.83414	 -0.57066	  4.52615	  2.23537	  1.12955	 -0.24301	  4.78478	704.23401	 23.90	
 20.008	156.764	  3.86150	 -0.44454	  4.35718	  2.81086	  0.65650	 -0.23885	  4.81078	704.31702	 23.90	
 20.000	145.147	  3.86934	 -0.23127	  4.04120	  3.34172	  0.24915	 -0.23597	  4.80537	704.10699	 23.90	
 19.995	133.545	  3.87143	  0.06258	  3.61943	  3.80257	 -0.07472	 -0.23624	  4.79960	704.19598	 23.90	
 20.009	121.926	  3.86544	  0.42680	  3.11686	  4.17565	 -0.32786	 -0.22826	  4.79563	704.15399	 23.90	
 20.005	110.327	  3.86722	  0.86685	  2.57166	  4.43516	 -0.49359	 -0.22358	  4.79802	704.14899	 23.90	
 19.989	 98.733	  3.86570	  1.36946	  2.00642	  4.57705	 -0.58415	 -0.21552	  4.80134	704.24799	 23.90	
 19.999	 87.075	  3.85723	  1.91265	  1.44430	  4.59088	 -0.60091	 -0.22996	  4.80135	704.23700	 23.90	
 19.992	 75.457	  3.85881	  2.47769	  0.92846	  4.49395	 -0.53871	 -0.24967	  4.80954	704.22699	 23.90	
 20.009	 63.844	  3.84867	  3.02662	  0.46123	  4.26749	 -0.40349	 -0.25225	  4.81335	704.23102	 23.90	
 19.989	 52.269	  3.83124	  3.52768	  0.07012	  3.91688	 -0.18492	 -0.24242	  4.80544	704.11798	 23.90	
 19.999	 40.602	  3.82084	  3.96691	 -0.24687	  3.47389	  0.11766	 -0.22074	  4.80896	704.19397	 23.90	
 20.004	 29.051	  3.80084	  4.29390	 -0.47957	  2.95476	  0.49222	 -0.19183	  4.80189	704.10400	 23.90	
 20.005	 17.433	  3.78491	  4.50512	 -0.63065	  2.39764	  0.93862	 -0.17102	  4.79183	704.17902	 23.90	
 20.006	  5.780	  3.77462	  4.60633	 -0.70667	  1.83142	  1.44599	 -0.15801	  4.79539	704.18298	 23.90	
 20.006	 -5.780	  3.76856	  4.58645	 -0.70024	  1.28946	  1.98838	 -0.16090	  4.79558	704.17999	 23.90	
 20.005	-17.433	  3.76897	  4.45314	 -0.61596	  0.78571	  2.55429	 -0.16048	  4.80007	704.09003	 23.90	
 20.004	-29.051	  3.75988	  4.19196	 -0.45272	  0.34159	  3.09428	 -0.15344	  4.79523	704.23102	 23.90	
 19.999	-40.602	  3.75906	  3.82529	 -0.20830	 -0.02035	  3.58752	 -0.15377	  4.79199	704.43597	 23.90	
 19.989	-52.269	  3.76708	  3.37285	  0.11239	 -0.31679	  4.02273	 -0.15595	  4.80895	704.33398	 23.90	
 20.009	-63.844	  3.76024	  2.84353	  0.51001	 -0.52427	  4.33213	 -0.14926	  4.79690	704.38800	 23.90	
 19.992	-75.457	  3.76383	  2.28781	  0.98510	 -0.64968	  4.53845	 -0.15203	  4.80012	704.37598	 23.90	
 19.999	-87.075	  3.76910	  1.72419	  1.50914	 -0.70705	  4.62756	 -0.15477	  4.80464	704.22400	 23.90	
 19.989	-98.733	  3.76341	  1.18398	  2.06681	 -0.67663	  4.57988	 -0.16402	  4.79143	704.21100	 23.90	
 20.005	-110.327	  3.76333	  0.69854	  2.62414	 -0.57182	  4.42060	 -0.18945	  4.78492	704.36798	 23.90	
 20.009	-121.926	  3.78130	  0.28558	  3.17286	 -0.38787	  4.15799	 -0.20963	  4.80133	704.37402	 23.90	
 19.995	-133.545	  3.79548	 -0.05791	  3.66414	 -0.12008	  3.77721	 -0.22729	  4.80650	704.32397	 23.90	
 20.000	-145.147	  3.80848	 -0.31925	  4.07433	  0.22881	  3.30715	 -0.23853	  4.81183	704.20001	 23.90	
 20.008	-156.764	  3.80588	 -0.50089	  4.36121	  0.65259	  2.76522	 -0.23194	  4.79606	704.30603	 23.90	
 20.003	-168.362	  3.81448	 -0.60067	  4.53635	  1.13877	  2.20767	 -0.23578	  4.79126	704.18799	 23.90	
 20.000	180.000	  3.83178	 -0.62734	  4.60273	  1.67658	  1.65645	 -0.23001	  4.79746	704.20801	 23.90	
