FileType=PCF
NHL=14
Date=08/24/17	11:47:16
Facility=APL
Serial=16328-3
Customer=NASA
NP=6
Mach=0.050000
Calibration=1:1
CalPts=490
TstPts=95
PortNumbering=AP Standard
Units=Torr C m/s kg/m^3 deg mm 
Theta[deg]	Phi[deg]	P1[Torr]	P2[Torr]	P3[Torr]	P4[Torr]	P5[Torr]	P6[Torr]	Pt[Torr]	Ps[Abs,Torr]	Ts[C]	
  0.000	  0.000	  1.22766	  0.65928	  0.64620	  0.65168	  0.66305	  0.00560	  1.21927	704.05902	 23.70	
  1.691	128.401	  1.23281	  0.63029	  0.68042	  0.68904	  0.62693	  0.00523	  1.22369	704.04401	 23.70	
  1.692	 77.194	  1.23008	  0.67330	  0.63046	  0.69805	  0.61608	  0.00451	  1.22118	703.93701	 23.70	
  1.699	 26.182	  1.23810	  0.71747	  0.59853	  0.67000	  0.64399	  0.00349	  1.22882	704.00598	 23.70	
  1.699	-26.182	  1.24032	  0.71614	  0.59944	  0.61949	  0.69772	  0.00280	  1.23177	703.97803	 23.70	
  1.692	-77.194	  1.23943	  0.67267	  0.63547	  0.59385	  0.72830	  0.00284	  1.23242	704.17902	 23.70	
  1.691	-128.401	  1.24097	  0.62621	  0.68709	  0.60142	  0.71834	  0.00123	  1.23319	704.02301	 23.70	
  1.700	180.000	  1.24229	  0.60961	  0.71195	  0.64804	  0.67089	  0.00347	  1.23361	703.99597	 23.70	
  3.400	180.000	  1.24463	  0.54532	  0.77732	  0.64672	  0.66746	  0.00211	  1.23854	704.13202	 23.70	
  3.388	-152.325	  1.24465	  0.55758	  0.76105	  0.59177	  0.72572	  0.00103	  1.24002	704.06799	 23.70	
  3.397	-124.529	  1.23765	  0.58818	  0.71457	  0.54582	  0.76724	 -0.00133	  1.23298	704.03003	 23.70	
  3.399	-96.763	  1.24431	  0.64326	  0.66213	  0.52980	  0.79533	 -0.00145	  1.24043	704.05298	 23.70	
  3.394	-69.283	  1.23655	  0.69593	  0.60199	  0.53354	  0.78157	 -0.00030	  1.23315	704.04498	 23.70	
  3.400	-41.398	  1.23623	  0.74880	  0.55570	  0.56201	  0.74825	  0.00114	  1.23260	704.01300	 23.70	
  3.401	-14.021	  1.23512	  0.77803	  0.53101	  0.60785	  0.69564	  0.00064	  1.23057	704.08502	 23.70	
  3.401	 14.021	  1.24017	  0.78485	  0.53115	  0.66854	  0.63916	  0.00086	  1.23494	703.97101	 23.70	
  3.400	 41.398	  1.24121	  0.75701	  0.55790	  0.72388	  0.59073	  0.00193	  1.23545	704.01099	 23.70	
  3.394	 69.283	  1.23916	  0.70657	  0.60162	  0.75816	  0.56081	  0.00278	  1.23194	703.97101	 23.70	
  3.399	 96.763	  1.23865	  0.64842	  0.65837	  0.76815	  0.55414	  0.00227	  1.23131	704.03699	 23.70	
  3.397	124.529	  1.24275	  0.59869	  0.71598	  0.74962	  0.57282	  0.00363	  1.23385	703.95099	 23.70	
  3.388	152.325	  1.23689	  0.55955	  0.75509	  0.70149	  0.60804	  0.00328	  1.22945	704.03003	 23.70	
  5.099	161.165	  1.23205	  0.48755	  0.81865	  0.69647	  0.59666	 -0.00088	  1.22964	704.05798	 23.70	
  5.109	142.013	  1.23301	  0.51626	  0.78624	  0.75355	  0.54652	 -0.00116	  1.23014	704.05798	 23.70	
  5.095	123.033	  1.23129	  0.55828	  0.73770	  0.79482	  0.51099	 -0.00060	  1.22766	704.07599	 23.70	
  5.105	104.191	  1.23435	  0.61166	  0.68099	  0.82248	  0.48979	 -0.00155	  1.23181	704.11200	 23.70	
  5.093	 85.207	  1.23169	  0.67090	  0.61803	  0.82472	  0.48565	 -0.00275	  1.22832	704.13397	 23.70	
  5.104	 66.290	  1.22959	  0.72948	  0.56023	  0.80637	  0.49745	 -0.00332	  1.22654	704.13702	 23.70	
  5.094	 47.331	  1.22946	  0.78253	  0.51242	  0.76863	  0.52782	 -0.00409	  1.22799	704.09302	 23.70	
  5.089	 28.397	  1.23441	  0.82391	  0.48204	  0.72203	  0.57474	 -0.00443	  1.23509	704.00800	 23.70	
  5.096	  9.576	  1.22999	  0.84069	  0.46253	  0.65930	  0.62879	 -0.00415	  1.23165	704.02301	 23.70	
  5.096	 -9.576	  1.22871	  0.83795	  0.46347	  0.59816	  0.68927	 -0.00397	  1.23187	704.14801	 23.70	
  5.089	-28.397	  1.23079	  0.81538	  0.48223	  0.54467	  0.74805	 -0.00421	  1.23349	704.00598	 23.70	
  5.094	-47.331	  1.22998	  0.77380	  0.51551	  0.49960	  0.79829	 -0.00555	  1.23323	704.05798	 23.70	
  5.104	-66.290	  1.22041	  0.71337	  0.55980	  0.46682	  0.82717	 -0.00515	  1.22420	704.04700	 23.70	
  5.093	-85.207	  1.22735	  0.65723	  0.61971	  0.45787	  0.84606	 -0.00568	  1.22973	703.99701	 23.70	
  5.105	-104.191	  1.23300	  0.59989	  0.68551	  0.46487	  0.84473	 -0.00710	  1.23611	704.05402	 23.70	
  5.095	-123.033	  1.23043	  0.54777	  0.74034	  0.48728	  0.81510	 -0.00607	  1.23093	704.15997	 23.70	
  5.109	-142.013	  1.22510	  0.50573	  0.78472	  0.52283	  0.76888	 -0.00435	  1.22638	703.97803	 23.70	
  5.099	-161.165	  1.23353	  0.48412	  0.82190	  0.57828	  0.71756	 -0.00217	  1.23318	703.83698	 23.70	
  5.100	180.000	  1.23011	  0.47581	  0.83034	  0.63655	  0.65367	 -0.00067	  1.23003	703.88702	 23.70	
  6.800	180.000	  1.21946	  0.40629	  0.88534	  0.62573	  0.64179	 -0.00720	  1.22904	703.89301	 23.70	
  6.796	-166.229	  1.21828	  0.41078	  0.87605	  0.56540	  0.70050	 -0.00796	  1.22956	703.99701	 23.70	
  6.808	-152.311	  1.21791	  0.42635	  0.85418	  0.51197	  0.75735	 -0.00903	  1.22999	703.94000	 23.70	
  6.795	-138.383	  1.22066	  0.45603	  0.81930	  0.46601	  0.81178	 -0.01180	  1.23326	703.97803	 23.70	
  6.792	-124.591	  1.21378	  0.49255	  0.76832	  0.42665	  0.84995	 -0.01269	  1.22805	703.75403	 23.70	
  6.787	-110.754	  1.21766	  0.54235	  0.71481	  0.40292	  0.88311	 -0.01541	  1.23280	703.81897	 23.70	
  6.800	-96.985	  1.21080	  0.59531	  0.65162	  0.38630	  0.89573	 -0.01533	  1.22669	703.86102	 23.70	
  6.800	-83.015	  1.21124	  0.65539	  0.59161	  0.38646	  0.89673	 -0.01423	  1.22762	703.95203	 23.70	
  6.787	-69.246	  1.21620	  0.71709	  0.53793	  0.39881	  0.88576	 -0.01372	  1.23269	703.96301	 23.70	
  6.792	-55.409	  1.21247	  0.77201	  0.48607	  0.42052	  0.85496	 -0.01324	  1.22933	703.83301	 23.70	
  6.795	-41.617	  1.21149	  0.81894	  0.44475	  0.45699	  0.81166	 -0.01211	  1.22639	703.96600	 23.70	
  6.808	-27.689	  1.21324	  0.86029	  0.41395	  0.50246	  0.76198	 -0.01049	  1.22883	703.92603	 23.70	
  6.796	-13.771	  1.21472	  0.88683	  0.39476	  0.55540	  0.70633	 -0.01121	  1.22938	703.87299	 23.70	
  6.800	  0.000	  1.21461	  0.89499	  0.38992	  0.61466	  0.64595	 -0.01098	  1.22872	703.86401	 23.70	
  6.796	 13.771	  1.21356	  0.88928	  0.39567	  0.67448	  0.58761	 -0.00969	  1.22647	703.89301	 23.70	
  6.808	 27.689	  1.22095	  0.87301	  0.41597	  0.73676	  0.53741	 -0.00938	  1.23197	703.93201	 23.70	
  6.795	 41.617	  1.22082	  0.83716	  0.44758	  0.78792	  0.49247	 -0.00991	  1.22957	703.87799	 23.70	
  6.792	 55.409	  1.22377	  0.79241	  0.48877	  0.83303	  0.45744	 -0.00906	  1.23076	703.92902	 23.70	
  6.787	 69.246	  1.22358	  0.73729	  0.53827	  0.86435	  0.43248	 -0.00905	  1.22935	703.92102	 23.70	
  6.800	 83.015	  1.22412	  0.67812	  0.59326	  0.88117	  0.41905	 -0.00860	  1.22946	703.75500	 23.70	
  6.800	 96.985	  1.22329	  0.61797	  0.65259	  0.88088	  0.41869	 -0.00829	  1.22745	703.96002	 23.70	
  6.787	110.754	  1.21815	  0.55967	  0.70990	  0.86343	  0.42944	 -0.00660	  1.22314	703.88501	 23.70	
  6.792	124.591	  1.22690	  0.51419	  0.76943	  0.83959	  0.45633	 -0.00551	  1.23180	703.84198	 23.70	
  6.795	138.383	  1.22402	  0.47103	  0.81630	  0.79570	  0.48966	 -0.00521	  1.22882	703.84698	 23.80	
  6.808	152.311	  1.22216	  0.43854	  0.85317	  0.74403	  0.53245	 -0.00431	  1.22864	703.85400	 23.70	
  6.796	166.229	  1.22137	  0.41647	  0.87654	  0.68606	  0.58383	 -0.00542	  1.22977	703.95099	 23.80	
  8.491	168.704	  1.20491	  0.34447	  0.92916	  0.67291	  0.56662	 -0.01407	  1.22686	703.89502	 23.70	
  8.502	157.493	  1.21013	  0.36356	  0.91149	  0.73609	  0.51355	 -0.01092	  1.23033	703.91901	 23.80	
  8.494	146.194	  1.21462	  0.39291	  0.88213	  0.79393	  0.46744	 -0.01067	  1.23447	703.88202	 23.80	
  8.495	135.039	  1.20747	  0.42485	  0.83509	  0.83854	  0.42325	 -0.01244	  1.22538	704.00500	 23.80	
  8.487	123.723	  1.21183	  0.47017	  0.78770	  0.88348	  0.39118	 -0.01311	  1.23033	703.88098	 23.80	
  8.492	112.575	  1.20943	  0.51913	  0.72872	  0.91074	  0.36605	 -0.01331	  1.22684	704.01099	 23.80	
  8.510	101.220	  1.20898	  0.57622	  0.66822	  0.92860	  0.35274	 -0.01543	  1.22768	703.87097	 23.80	
  8.500	 90.000	  1.20943	  0.63602	  0.60825	  0.93538	  0.34780	 -0.01680	  1.22701	703.91901	 23.80	
  8.510	 78.780	  1.20664	  0.69491	  0.54696	  0.92583	  0.35185	 -0.01660	  1.22595	703.84198	 23.70	
  8.492	 67.425	  1.20986	  0.75751	  0.49303	  0.90851	  0.36890	 -0.01666	  1.23022	703.88501	 23.70	
  8.487	 56.277	  1.20978	  0.81288	  0.44360	  0.87664	  0.39265	 -0.01790	  1.23119	703.93701	 23.80	
  8.495	 44.961	  1.20888	  0.86155	  0.39980	  0.83399	  0.42693	 -0.01951	  1.23276	703.84497	 23.80	
  8.494	 33.806	  1.20197	  0.89773	  0.36305	  0.77797	  0.46781	 -0.01751	  1.22704	703.82501	 23.80	
  8.502	 22.507	  1.20132	  0.92699	  0.33726	  0.72100	  0.51681	 -0.01826	  1.22793	703.97498	 23.80	
  8.491	 11.296	  1.19673	  0.94031	  0.32322	  0.65832	  0.57112	 -0.01822	  1.22519	704.06500	 23.80	
  8.500	  0.000	  1.20019	  0.94738	  0.31850	  0.59892	  0.63230	 -0.01937	  1.23009	703.91602	 23.80	
  8.491	-11.296	  1.19787	  0.93685	  0.32424	  0.53956	  0.69186	 -0.01866	  1.22829	704.01599	 23.80	
  8.502	-22.507	  1.19770	  0.91659	  0.33792	  0.48321	  0.75095	 -0.01817	  1.22889	703.98297	 23.80	
  8.494	-33.806	  1.19922	  0.88452	  0.36517	  0.43360	  0.80888	 -0.01943	  1.23157	703.86798	 23.80	
  8.495	-44.961	  1.19334	  0.83589	  0.39837	  0.38992	  0.85357	 -0.01992	  1.22563	703.90399	 23.80	
  8.487	-56.277	  1.19337	  0.78530	  0.44257	  0.35845	  0.89278	 -0.02039	  1.22619	703.87500	 23.80	
  8.492	-67.425	  1.19413	  0.73103	  0.49062	  0.33310	  0.92461	 -0.02193	  1.22571	703.91199	 23.80	
  8.510	-78.780	  1.19539	  0.66923	  0.54858	  0.31850	  0.94440	 -0.02218	  1.22784	703.84198	 23.80	
  8.500	-90.000	  1.19482	  0.60931	  0.60791	  0.31511	  0.94914	 -0.02334	  1.22605	703.89001	 23.80	
  8.510	-101.220	  1.19763	  0.55163	  0.66964	  0.32093	  0.94442	 -0.02308	  1.22890	703.89001	 23.80	
  8.492	-112.575	  1.19311	  0.49442	  0.72727	  0.33629	  0.92017	 -0.02087	  1.22304	703.90900	 23.80	
  8.487	-123.723	  1.19816	  0.44863	  0.78587	  0.36503	  0.89150	 -0.01936	  1.22800	703.95801	 23.80	
  8.495	-135.039	  1.19347	  0.40429	  0.83334	  0.39710	  0.84673	 -0.01883	  1.22078	703.82599	 23.80	
  8.494	-146.194	  1.19951	  0.37494	  0.87807	  0.44317	  0.80101	 -0.01663	  1.22788	703.78497	 23.80	
  8.502	-157.493	  1.20190	  0.35182	  0.91094	  0.49608	  0.74472	 -0.01430	  1.22809	703.78302	 23.80	
  8.491	-168.704	  1.20593	  0.34155	  0.93164	  0.55329	  0.68850	 -0.01326	  1.23119	703.79199	 23.80	
  8.500	180.000	  1.20721	  0.33787	  0.93931	  0.61381	  0.62816	 -0.01364	  1.23129	703.81598	 23.80	
 10.200	180.000	  1.18188	  0.26447	  0.98276	  0.59385	  0.60499	 -0.02292	  1.22516	703.92603	 23.80	
 10.191	-170.497	  1.18222	  0.26604	  0.97848	  0.53293	  0.66657	 -0.02245	  1.22706	703.97998	 23.80	
 10.210	-161.034	  1.17944	  0.27419	  0.96041	  0.47320	  0.72576	 -0.02334	  1.22517	703.87299	 23.80	
 10.194	-151.526	  1.17926	  0.29552	  0.93277	  0.41988	  0.78644	 -0.02421	  1.22663	703.89001	 23.80	
 10.190	-142.105	  1.17792	  0.32154	  0.89653	  0.37173	  0.83908	 -0.02576	  1.22685	703.79498	 23.80	
 10.215	-132.646	  1.17424	  0.35546	  0.85094	  0.33118	  0.88580	 -0.02690	  1.22376	703.94299	 23.80	
 10.203	-123.092	  1.17500	  0.39838	  0.79915	  0.29715	  0.92822	 -0.02771	  1.22568	703.87903	 23.80	
 10.192	-113.678	  1.17849	  0.44587	  0.74600	  0.27196	  0.96238	 -0.03086	  1.23182	703.88202	 23.80	
 10.208	-104.249	  1.17397	  0.49995	  0.68235	  0.25262	  0.98284	 -0.03316	  1.22757	703.94000	 23.80	
 10.210	-94.801	  1.17636	  0.55822	  0.62301	  0.24385	  0.99733	 -0.03466	  1.23130	703.77802	 23.80	
 10.210	-85.199	  1.17707	  0.62148	  0.55978	  0.24155	  0.99985	 -0.03429	  1.23114	703.81097	 23.80	
 10.208	-75.751	  1.17322	  0.68113	  0.49942	  0.24975	  0.98607	 -0.03215	  1.22874	703.67297	 23.80	
 10.192	-66.322	  1.17300	  0.74078	  0.44475	  0.26644	  0.96368	 -0.03069	  1.22711	703.90399	 23.80	
 10.203	-56.908	  1.17330	  0.79972	  0.39302	  0.28914	  0.93395	 -0.03094	  1.22804	703.80298	 23.80	
 10.215	-47.354	  1.17814	  0.85630	  0.35062	  0.32366	  0.89731	 -0.02943	  1.23323	703.76001	 23.80	
 10.190	-37.895	  1.17074	  0.89665	  0.31214	  0.36170	  0.84309	 -0.02750	  1.22383	703.86401	 23.80	
 10.194	-28.474	  1.17171	  0.93465	  0.28421	  0.40875	  0.78996	 -0.02667	  1.22408	703.83899	 23.80	
 10.210	-18.966	  1.17783	  0.96913	  0.26292	  0.46178	  0.73635	 -0.02664	  1.22986	703.82599	 23.80	
 10.191	 -9.503	  1.17844	  0.98726	  0.25093	  0.51970	  0.67562	 -0.02690	  1.23067	703.90900	 23.80	
 10.200	  0.000	  1.17536	  0.99255	  0.24527	  0.57759	  0.61324	 -0.02688	  1.22594	703.74402	 23.80	
 10.191	  9.503	  1.17995	  0.99214	  0.25083	  0.64250	  0.55437	 -0.02794	  1.22854	703.89801	 23.80	
 10.210	 18.966	  1.18032	  0.97813	  0.26233	  0.70421	  0.49719	 -0.02701	  1.22795	703.77197	 23.80	
 10.194	 28.474	  1.17888	  0.95092	  0.28255	  0.76165	  0.44255	 -0.02759	  1.22370	703.85602	 23.80	
 10.190	 37.895	  1.18086	  0.91736	  0.31137	  0.81794	  0.39697	 -0.02973	  1.22517	703.84802	 23.80	
 10.215	 47.354	  1.17696	  0.87150	  0.34629	  0.86330	  0.35654	 -0.02844	  1.21945	703.85400	 23.80	
 10.203	 56.908	  1.18253	  0.82474	  0.39141	  0.90835	  0.32524	 -0.02814	  1.22310	703.86499	 23.80	
 10.192	 66.322	  1.19287	  0.77371	  0.44514	  0.94890	  0.30198	 -0.02692	  1.23140	703.74701	 23.80	
 10.208	 75.751	  1.18681	  0.71044	  0.49761	  0.96712	  0.28414	 -0.02752	  1.22416	703.79797	 23.70	
 10.210	 85.199	  1.18978	  0.65156	  0.55621	  0.98072	  0.27716	 -0.02711	  1.22608	703.80603	 23.80	
 10.210	 94.801	  1.18892	  0.58649	  0.61976	  0.98188	  0.27551	 -0.02724	  1.22460	703.87000	 23.80	
 10.208	104.249	  1.19215	  0.53091	  0.68236	  0.97365	  0.28519	 -0.02354	  1.22852	703.91302	 23.80	
 10.192	113.678	  1.19346	  0.47677	  0.74285	  0.95297	  0.30254	 -0.02136	  1.22940	703.87903	 23.80	
 10.203	123.092	  1.19179	  0.42458	  0.79941	  0.92201	  0.32387	 -0.02088	  1.22711	703.93298	 23.80	
 10.215	132.646	  1.18869	  0.37884	  0.85110	  0.88082	  0.35503	 -0.01984	  1.22457	703.88098	 23.70	
 10.190	142.105	  1.18941	  0.34217	  0.89665	  0.83364	  0.39393	 -0.01892	  1.22684	703.95697	 23.80	
 10.194	151.526	  1.18505	  0.30835	  0.93176	  0.77584	  0.43850	 -0.01881	  1.22371	703.95203	 23.80	
 10.210	161.034	  1.18684	  0.28694	  0.96155	  0.71880	  0.49078	 -0.01985	  1.22660	703.92401	 23.80	
 10.191	170.497	  1.18889	  0.27358	  0.98037	  0.66039	  0.54781	 -0.02042	  1.23014	703.92902	 23.70	
 11.899	171.783	  1.16347	  0.19793	  1.02610	  0.63971	  0.52422	 -0.03106	  1.22852	703.88202	 23.80	
 11.890	163.610	  1.16420	  0.21407	  1.00868	  0.70035	  0.46882	 -0.02809	  1.22592	703.71899	 23.80	
 11.889	155.445	  1.16587	  0.23385	  0.98565	  0.76158	  0.41599	 -0.02615	  1.22733	703.83099	 23.80	
 11.909	147.299	  1.16397	  0.25931	  0.95078	  0.81790	  0.36686	 -0.02706	  1.22488	703.87000	 23.80	
 11.902	139.148	  1.16556	  0.29343	  0.90988	  0.87059	  0.32525	 -0.02856	  1.22409	703.80603	 23.80	
 11.894	130.867	  1.16911	  0.33189	  0.86377	  0.91837	  0.28817	 -0.02963	  1.22750	703.91199	 23.80	
 11.897	122.732	  1.16892	  0.37854	  0.80998	  0.95772	  0.25927	 -0.03049	  1.22697	703.90198	 23.80	
 11.903	114.597	  1.16376	  0.42606	  0.74958	  0.98567	  0.23424	 -0.03082	  1.22188	703.85602	 23.80	
 11.893	106.346	  1.16996	  0.48322	  0.69217	  1.01337	  0.21822	 -0.03245	  1.22791	703.97803	 23.80	
 11.892	 98.155	  1.16544	  0.53952	  0.62778	  1.02233	  0.20773	 -0.03367	  1.22359	703.88501	 23.80	
 11.900	 90.000	  1.16255	  0.59879	  0.56427	  1.02435	  0.20225	 -0.03723	  1.22263	703.89001	 23.80	
 11.892	 81.845	  1.15723	  0.65762	  0.50135	  1.01302	  0.20654	 -0.03815	  1.21614	703.91901	 23.80	
 11.893	 73.654	  1.15845	  0.71971	  0.44462	  0.99862	  0.21731	 -0.03632	  1.21825	703.89801	 23.80	
 11.903	 65.403	  1.15446	  0.77715	  0.39000	  0.97192	  0.23448	 -0.03714	  1.21612	703.80902	 23.80	
 11.897	 57.268	  1.16186	  0.83885	  0.34373	  0.94479	  0.26080	 -0.03740	  1.22540	703.86200	 23.80	
 11.894	 49.133	  1.15904	  0.88929	  0.29921	  0.90279	  0.29251	 -0.03804	  1.22457	703.90900	 23.80	
 11.902	 40.852	  1.15374	  0.93193	  0.25932	  0.85112	  0.32776	 -0.03776	  1.22145	703.91901	 23.80	
 11.909	 32.701	  1.15083	  0.96788	  0.22873	  0.79627	  0.37070	 -0.03766	  1.22028	704.01398	 23.80	
 11.889	 24.555	  1.15345	  1.00072	  0.20614	  0.74077	  0.42244	 -0.03546	  1.22452	703.89301	 23.80	
 11.890	 16.390	  1.14871	  1.01832	  0.18770	  0.67860	  0.47369	 -0.03571	  1.22031	703.84698	 23.80	
 11.899	  8.217	  1.14979	  1.03386	  0.17631	  0.61836	  0.53097	 -0.03595	  1.22414	703.87097	 23.70	
 11.900	  0.000	  1.14781	  1.03326	  0.17438	  0.55475	  0.59146	 -0.03592	  1.22225	703.93701	 23.70	
 11.899	 -8.217	  1.14680	  1.02651	  0.17747	  0.49411	  0.65257	 -0.03421	  1.22373	703.90399	 23.80	
 11.890	-16.390	  1.14755	  1.01025	  0.18943	  0.43928	  0.71218	 -0.03390	  1.22437	704.05798	 23.80	
 11.889	-24.555	  1.14888	  0.98722	  0.20691	  0.38490	  0.77375	 -0.03291	  1.22756	703.90997	 23.70	
 11.909	-32.701	  1.14826	  0.95272	  0.23190	  0.33576	  0.82971	 -0.03484	  1.22778	703.89001	 23.80	
 11.902	-40.852	  1.14669	  0.90949	  0.26191	  0.29167	  0.87995	 -0.03579	  1.22557	703.86200	 23.80	
 11.894	-49.133	  1.14601	  0.86035	  0.30061	  0.25301	  0.92706	 -0.03825	  1.22545	703.83698	 23.80	
 11.897	-57.268	  1.14621	  0.80758	  0.34488	  0.22197	  0.96795	 -0.04014	  1.22753	703.99902	 23.80	
 11.903	-65.403	  1.13542	  0.74120	  0.39185	  0.19611	  0.98960	 -0.03823	  1.21535	704.00800	 23.70	
 11.893	-73.654	  1.14340	  0.68620	  0.44804	  0.18086	  1.01862	 -0.03953	  1.22434	703.90900	 23.70	
 11.892	-81.845	  1.14051	  0.62229	  0.50416	  0.16958	  1.02901	 -0.04192	  1.22021	703.98602	 23.70	
 11.900	-90.000	  1.14851	  0.56406	  0.56976	  0.17022	  1.03862	 -0.04377	  1.22745	703.95697	 23.70	
 11.892	-98.155	  1.14805	  0.50398	  0.63086	  0.17393	  1.03301	 -0.04430	  1.22699	703.94397	 23.70	
 11.893	-106.346	  1.14653	  0.44761	  0.69122	  0.18450	  1.01776	 -0.04165	  1.22541	703.79999	 23.70	
 11.903	-114.597	  1.14496	  0.39391	  0.75091	  0.20378	  0.99186	 -0.03976	  1.22159	703.95697	 23.70	
 11.897	-122.732	  1.14947	  0.34796	  0.81079	  0.23134	  0.96088	 -0.03841	  1.22536	703.85602	 23.70	
 11.894	-130.867	  1.14927	  0.30562	  0.86230	  0.26348	  0.92023	 -0.03578	  1.22358	703.74402	 23.70	
 11.902	-139.148	  1.15211	  0.26880	  0.91091	  0.30215	  0.87453	 -0.03523	  1.22489	703.72699	 23.70	
 11.909	-147.299	  1.15686	  0.24008	  0.95594	  0.34941	  0.82389	 -0.03300	  1.22890	703.82202	 23.70	
 11.889	-155.445	  1.15514	  0.21724	  0.98533	  0.39915	  0.76527	 -0.03242	  1.22609	703.92102	 23.70	
 11.890	-163.610	  1.15431	  0.20141	  1.00630	  0.45342	  0.70323	 -0.03247	  1.22393	703.79102	 23.70	
 11.899	-171.783	  1.15711	  0.19346	  1.02215	  0.51189	  0.64409	 -0.03294	  1.22496	703.81897	 23.80	
 11.900	180.000	  1.15981	  0.18980	  1.02973	  0.57484	  0.58090	 -0.03368	  1.22722	703.80798	 23.70	
 13.600	180.000	  1.13003	  0.12212	  1.06666	  0.55071	  0.55867	 -0.04237	  1.22502	703.87903	 23.70	
 13.608	-172.853	  1.12866	  0.12175	  1.06332	  0.49054	  0.61789	 -0.04109	  1.22515	703.82202	 23.70	
 13.611	-165.583	  1.12635	  0.12803	  1.04988	  0.43074	  0.67811	 -0.04164	  1.22466	703.87299	 23.70	
 13.601	-158.353	  1.12609	  0.14104	  1.02918	  0.37335	  0.74100	 -0.04150	  1.22555	703.83698	 23.70	
 13.609	-151.210	  1.12323	  0.16095	  0.99864	  0.32156	  0.79842	 -0.04229	  1.22417	703.74701	 23.70	
 13.611	-143.999	  1.12049	  0.18629	  0.96144	  0.27581	  0.85168	 -0.04246	  1.22227	703.95697	 23.70	
 13.601	-136.825	  1.12565	  0.21787	  0.92355	  0.23408	  0.90728	 -0.04507	  1.22982	703.83301	 23.70	
 13.596	-129.640	  1.12325	  0.25422	  0.87335	  0.19538	  0.95383	 -0.04437	  1.22928	704.05298	 23.70	
 13.611	-122.431	  1.12043	  0.29559	  0.81844	  0.16546	  0.99111	 -0.04643	  1.22641	703.90601	 23.70	
 13.604	-115.211	  1.12139	  0.34343	  0.76224	  0.14086	  1.02488	 -0.04769	  1.22832	703.82599	 23.80	
 13.595	-108.042	  1.12329	  0.39495	  0.70440	  0.12225	  1.05119	 -0.04818	  1.23003	703.98297	 23.70	
 13.607	-100.793	  1.12115	  0.45107	  0.64002	  0.10683	  1.06990	 -0.05009	  1.23020	703.89001	 23.70	
 13.601	-93.617	  1.11147	  0.50474	  0.57303	  0.10006	  1.06831	 -0.05076	  1.21956	703.79498	 23.70	
 13.601	-86.383	  1.11237	  0.56592	  0.51291	  0.09891	  1.07122	 -0.05137	  1.22196	703.93701	 23.70	
 13.607	-79.207	  1.11265	  0.62821	  0.45382	  0.10437	  1.06431	 -0.04730	  1.22283	703.92902	 23.70	
 13.595	-71.958	  1.11697	  0.69269	  0.39876	  0.11594	  1.05248	 -0.04465	  1.22764	703.91803	 23.70	
 13.604	-64.789	  1.11429	  0.75245	  0.34468	  0.13377	  1.02701	 -0.04427	  1.22493	703.90198	 23.70	
 13.611	-57.569	  1.11270	  0.80949	  0.29290	  0.15426	  0.99460	 -0.04512	  1.22325	703.83002	 23.70	
 13.596	-50.360	  1.11539	  0.86510	  0.25161	  0.18647	  0.95720	 -0.04333	  1.22467	703.87097	 23.70	
 13.601	-43.175	  1.11531	  0.91510	  0.21206	  0.22052	  0.91203	 -0.04207	  1.22367	703.86200	 23.70	
 13.611	-36.001	  1.11657	  0.96078	  0.17933	  0.26266	  0.86151	 -0.04175	  1.22524	703.81097	 23.70	
 13.609	-28.790	  1.11860	  0.99997	  0.15288	  0.30785	  0.80926	 -0.03920	  1.22581	703.93201	 23.70	
 13.601	-21.647	  1.12188	  1.03345	  0.13076	  0.35841	  0.75313	 -0.03944	  1.22928	703.79199	 23.70	
 13.611	-14.417	  1.12311	  1.05784	  0.11505	  0.41399	  0.69305	 -0.03949	  1.23086	703.83398	 23.70	
 13.608	 -7.147	  1.11939	  1.06873	  0.10579	  0.47087	  0.62910	 -0.03951	  1.22553	703.80902	 23.70	
 13.600	  0.000	  1.12303	  1.07775	  0.10256	  0.53137	  0.57022	 -0.04096	  1.22845	703.96600	 23.70	
 13.608	  7.147	  1.12514	  1.07749	  0.10593	  0.59465	  0.51112	 -0.04131	  1.22904	703.88501	 23.70	
 13.611	 14.417	  1.12238	  1.06255	  0.11512	  0.65500	  0.45156	 -0.04251	  1.22396	703.95697	 23.70	
 13.601	 21.647	  1.12482	  1.04667	  0.12846	  0.71670	  0.39740	 -0.04298	  1.22452	703.87000	 23.70	
 13.609	 28.790	  1.12640	  1.02074	  0.15055	  0.77841	  0.34625	 -0.04322	  1.22524	703.86200	 23.70	
 13.611	 36.001	  1.12721	  0.98598	  0.17675	  0.83339	  0.30041	 -0.04631	  1.22294	703.90100	 23.70	
 13.601	 43.175	  1.13326	  0.94836	  0.21186	  0.88988	  0.26127	 -0.04713	  1.22727	703.86798	 23.70	
 13.596	 50.360	  1.13368	  0.90189	  0.24864	  0.93520	  0.22555	 -0.04767	  1.22658	704.00800	 23.70	
 13.611	 57.569	  1.12992	  0.84523	  0.29124	  0.97400	  0.19311	 -0.04645	  1.22205	703.94897	 23.70	
 13.604	 64.789	  1.13548	  0.79227	  0.34000	  1.01137	  0.16853	 -0.04647	  1.22548	703.73499	 23.70	
 13.595	 71.958	  1.13426	  0.73112	  0.39366	  1.03519	  0.15144	 -0.04617	  1.22269	703.84497	 23.70	
 13.607	 79.207	  1.14091	  0.67374	  0.45246	  1.05892	  0.14032	 -0.04572	  1.22859	703.77502	 23.70	
 13.601	 86.383	  1.13670	  0.60920	  0.51038	  1.06468	  0.13342	 -0.04688	  1.22301	703.89001	 23.70	
 13.601	 93.617	  1.13685	  0.54751	  0.57189	  1.06529	  0.13294	 -0.04546	  1.22288	703.83002	 23.70	
 13.607	100.793	  1.13749	  0.48944	  0.63333	  1.05869	  0.13904	 -0.04382	  1.22201	703.81097	 23.70	
 13.595	108.042	  1.14248	  0.43175	  0.69811	  1.04809	  0.15001	 -0.04327	  1.22736	703.88702	 23.70	
 13.604	115.211	  1.14154	  0.37783	  0.75843	  1.02356	  0.16658	 -0.04034	  1.22632	703.76001	 23.70	
 13.611	122.431	  1.14284	  0.32950	  0.81736	  0.99199	  0.19086	 -0.04025	  1.22662	703.78497	 23.70	
 13.596	129.640	  1.14090	  0.28392	  0.87073	  0.95191	  0.21935	 -0.03828	  1.22569	703.85699	 23.70	
 13.601	136.825	  1.13883	  0.24284	  0.91982	  0.90518	  0.25368	 -0.03747	  1.22473	703.97101	 23.70	
 13.611	143.999	  1.14157	  0.20862	  0.96715	  0.85781	  0.29358	 -0.03707	  1.22984	703.84802	 23.70	
 13.609	151.210	  1.13562	  0.17945	  0.99964	  0.79839	  0.33755	 -0.03466	  1.22425	703.89502	 23.70	
 13.601	158.353	  1.13785	  0.15566	  1.03199	  0.74097	  0.38830	 -0.03554	  1.22730	703.79199	 23.70	
 13.611	165.583	  1.13395	  0.13668	  1.05225	  0.67759	  0.44044	 -0.03806	  1.22566	703.80603	 23.80	
 13.608	172.853	  1.13131	  0.12529	  1.06329	  0.61378	  0.49724	 -0.03931	  1.22435	703.81897	 23.70	
 15.298	173.587	  1.09559	  0.05794	  1.09605	  0.58741	  0.46955	 -0.04678	  1.22099	703.87799	 23.80	
 15.291	167.167	  1.09794	  0.06955	  1.08393	  0.65023	  0.41448	 -0.04496	  1.21980	703.89801	 23.80	
 15.307	160.676	  1.10157	  0.08462	  1.06735	  0.71252	  0.36145	 -0.04429	  1.22213	703.83899	 23.80	
 15.300	154.261	  1.10361	  0.10473	  1.04054	  0.77447	  0.30918	 -0.04244	  1.22334	703.81897	 23.80	
 15.288	147.854	  1.10949	  0.13081	  1.01168	  0.83360	  0.26593	 -0.04287	  1.22746	703.66498	 23.70	
 15.293	141.428	  1.10921	  0.16075	  0.97110	  0.88690	  0.22342	 -0.04400	  1.22699	703.92700	 23.80	
 15.299	134.985	  1.10615	  0.19494	  0.92272	  0.93389	  0.18453	 -0.04468	  1.22288	703.89001	 23.80	
 15.305	128.583	  1.10762	  0.23472	  0.87278	  0.97912	  0.15230	 -0.04490	  1.22289	703.79797	 23.80	
 15.309	122.142	  1.11124	  0.28133	  0.81949	  1.01997	  0.12617	 -0.04727	  1.22581	703.81097	 23.80	
 15.304	115.711	  1.10658	  0.32603	  0.75954	  1.04844	  0.10089	 -0.04836	  1.22282	703.76898	 23.80	
 15.297	109.291	  1.10753	  0.38033	  0.69992	  1.07295	  0.08615	 -0.04856	  1.22265	703.79401	 23.70	
 15.293	102.897	  1.10783	  0.43696	  0.63831	  1.09143	  0.07426	 -0.05001	  1.22284	703.84802	 23.70	
 15.293	 96.458	  1.11082	  0.49745	  0.57814	  1.10444	  0.06770	 -0.05221	  1.22683	703.84998	 23.70	
 15.300	 90.000	  1.10864	  0.55622	  0.51467	  1.10529	  0.06418	 -0.05350	  1.22571	703.77802	 23.70	
 15.293	 83.542	  1.10532	  0.61655	  0.45451	  1.09690	  0.06857	 -0.05316	  1.22244	703.93500	 23.70	
 15.293	 77.103	  1.10689	  0.67921	  0.39660	  1.08689	  0.07655	 -0.05283	  1.22556	703.87500	 23.70	
 15.297	 70.709	  1.10438	  0.73821	  0.34172	  1.06513	  0.08821	 -0.05322	  1.22452	703.88501	 23.70	
 15.304	 64.289	  1.10131	  0.79611	  0.28976	  1.03587	  0.10732	 -0.05214	  1.22291	703.83002	 23.80	
 15.309	 57.858	  1.09670	  0.84947	  0.24161	  0.99984	  0.12988	 -0.05328	  1.21877	703.79498	 23.70	
 15.305	 51.417	  1.09824	  0.90405	  0.19929	  0.96260	  0.15847	 -0.05422	  1.22282	703.88702	 23.80	
 15.299	 45.015	  1.09367	  0.94977	  0.16073	  0.91300	  0.19205	 -0.05247	  1.22009	704.00500	 23.80	
 15.293	 38.572	  1.09332	  0.99219	  0.12949	  0.86226	  0.23276	 -0.05126	  1.22039	703.84198	 23.80	
 15.288	 32.146	  1.09382	  1.03082	  0.10108	  0.80858	  0.27626	 -0.04946	  1.22366	703.84802	 23.80	
 15.300	 25.739	  1.09015	  1.05973	  0.07771	  0.74951	  0.32206	 -0.04567	  1.22143	703.77100	 23.80	
 15.307	 19.324	  1.08793	  1.08097	  0.06015	  0.68892	  0.37310	 -0.04712	  1.22062	703.94299	 23.80	
 15.291	 12.833	  1.08490	  1.09470	  0.04718	  0.62423	  0.42759	 -0.04500	  1.21883	703.87799	 23.80	
 15.298	  6.413	  1.08297	  1.10359	  0.03781	  0.56299	  0.48206	 -0.04382	  1.21917	703.72198	 23.80	
 15.300	  0.000	  1.09112	  1.11377	  0.03682	  0.50766	  0.54548	 -0.04437	  1.22869	703.86102	 23.80	
 15.298	 -6.413	  1.08438	  1.10131	  0.03867	  0.44412	  0.60356	 -0.04343	  1.22344	703.87500	 23.80	
 15.291	-12.833	  1.08568	  1.08928	  0.04702	  0.38841	  0.66420	 -0.04188	  1.22381	703.90100	 23.80	
 15.307	-19.324	  1.08558	  1.06841	  0.06256	  0.33433	  0.72609	 -0.04272	  1.22525	703.82300	 23.80	
 15.300	-25.739	  1.08569	  1.04168	  0.08026	  0.28398	  0.78335	 -0.04336	  1.22601	703.67401	 23.80	
 15.288	-32.146	  1.08534	  1.00702	  0.10388	  0.23632	  0.83985	 -0.04422	  1.22720	703.83301	 23.80	
 15.293	-38.572	  1.08228	  0.96575	  0.13092	  0.19249	  0.89205	 -0.04361	  1.22446	703.78003	 23.80	
 15.299	-45.015	  1.08439	  0.92106	  0.16544	  0.15590	  0.94235	 -0.04534	  1.22676	703.84198	 23.80	
 15.305	-51.417	  1.08012	  0.86661	  0.20408	  0.12356	  0.98126	 -0.04693	  1.22320	703.88702	 23.80	
 15.309	-57.858	  1.08113	  0.81233	  0.24636	  0.09318	  1.02132	 -0.04893	  1.22485	703.82300	 23.80	
 15.304	-64.289	  1.08150	  0.75473	  0.29467	  0.07090	  1.05403	 -0.04912	  1.22550	703.88702	 23.80	
 15.297	-70.709	  1.08404	  0.69647	  0.34865	  0.05570	  1.08009	 -0.04976	  1.22756	703.69800	 23.80	
 15.293	-77.103	  1.08003	  0.63171	  0.40094	  0.03953	  1.09578	 -0.05291	  1.22420	703.91602	 23.80	
 15.293	-83.542	  1.08442	  0.57398	  0.45974	  0.03329	  1.11022	 -0.05307	  1.22868	703.79199	 23.80	
 15.300	-90.000	  1.07850	  0.50963	  0.51903	  0.03265	  1.10644	 -0.05357	  1.22170	703.87097	 23.80	
 15.293	-96.458	  1.08383	  0.45268	  0.58301	  0.03758	  1.10632	 -0.05484	  1.22682	703.87299	 23.80	
 15.293	-102.897	  1.08486	  0.39602	  0.64347	  0.04365	  1.09587	 -0.05316	  1.22730	703.87097	 23.80	
 15.297	-109.291	  1.08382	  0.34221	  0.70426	  0.05926	  1.07524	 -0.05451	  1.22511	703.86499	 23.80	
 15.304	-115.711	  1.08020	  0.29168	  0.75971	  0.07817	  1.04371	 -0.05371	  1.21888	703.88501	 23.80	
 15.309	-122.142	  1.08643	  0.24686	  0.82153	  0.10363	  1.01622	 -0.05046	  1.22540	703.92401	 23.80	
 15.305	-128.583	  1.09074	  0.20646	  0.87788	  0.13299	  0.97996	 -0.05002	  1.22844	703.93298	 23.80	
 15.299	-134.985	  1.08569	  0.16911	  0.92338	  0.16745	  0.93008	 -0.05005	  1.22153	703.95502	 23.80	
 15.293	-141.428	  1.08643	  0.13784	  0.96731	  0.20623	  0.88067	 -0.04956	  1.22124	703.87903	 23.80	
 15.288	-147.854	  1.08819	  0.11045	  1.00640	  0.25021	  0.82693	 -0.05015	  1.22129	703.80298	 23.80	
 15.300	-154.261	  1.08856	  0.08809	  1.03853	  0.29830	  0.76950	 -0.04888	  1.21988	703.87299	 23.70	
 15.307	-160.676	  1.08780	  0.07025	  1.06321	  0.34834	  0.70981	 -0.04955	  1.21936	703.98798	 23.70	
 15.291	-167.167	  1.09543	  0.06011	  1.08751	  0.40799	  0.65203	 -0.05030	  1.22534	703.83698	 23.70	
 15.298	-173.587	  1.09973	  0.05490	  1.10300	  0.46772	  0.59338	 -0.05130	  1.22865	703.91302	 23.70	
 15.300	180.000	  1.09586	  0.05186	  1.10096	  0.52662	  0.52749	 -0.05008	  1.22296	703.94299	 23.70	
 17.000	180.000	  1.05916	 -0.01083	  1.13131	  0.49981	  0.50103	 -0.05537	  1.22106	703.85602	 23.70	
 16.990	-174.179	  1.05647	 -0.00873	  1.12514	  0.44000	  0.55992	 -0.05538	  1.21879	703.91302	 23.70	
 17.009	-168.383	  1.05931	 -0.00357	  1.12061	  0.38463	  0.62271	 -0.05534	  1.22540	703.92902	 23.70	
 17.000	-162.596	  1.05273	  0.00723	  1.09843	  0.32811	  0.67901	 -0.05482	  1.21847	703.81097	 23.70	
 16.990	-156.759	  1.05685	  0.02209	  1.07949	  0.27863	  0.74201	 -0.05445	  1.22460	703.90198	 23.70	
 16.995	-150.919	  1.05500	  0.04230	  1.04935	  0.23022	  0.79951	 -0.05670	  1.22368	703.89001	 23.70	
 16.988	-145.161	  1.05629	  0.06822	  1.01434	  0.18688	  0.85767	 -0.05602	  1.22558	703.87299	 23.70	
 17.014	-139.343	  1.05170	  0.09312	  0.97237	  0.14352	  0.90701	 -0.05644	  1.22338	703.86401	 23.70	
 17.007	-133.546	  1.04807	  0.12438	  0.92392	  0.10799	  0.95096	 -0.05439	  1.21994	703.97400	 23.70	
 17.001	-127.699	  1.04561	  0.16059	  0.87168	  0.07485	  0.99436	 -0.05328	  1.21880	704.02802	 23.70	
 17.006	-121.937	  1.04463	  0.19925	  0.81846	  0.04553	  1.03279	 -0.05550	  1.21876	703.89801	 23.70	
 17.002	-116.134	  1.04544	  0.24355	  0.76353	  0.02229	  1.06688	 -0.05626	  1.22118	703.92700	 23.70	
 17.001	-110.310	  1.04557	  0.28952	  0.70602	  0.00043	  1.09539	 -0.05494	  1.22325	703.90399	 23.70	
 16.988	-104.517	  1.04605	  0.34135	  0.64584	 -0.01499	  1.11757	 -0.05567	  1.22478	703.81897	 23.70	
 17.008	-98.662	  1.03808	  0.39337	  0.57911	 -0.02595	  1.12322	 -0.05180	  1.21694	703.87000	 23.70	
 16.996	-92.909	  1.03812	  0.44928	  0.51937	 -0.03321	  1.13058	 -0.05170	  1.21763	703.85699	 23.70	
 16.996	-87.091	  1.04266	  0.51066	  0.46197	 -0.03341	  1.13553	 -0.05238	  1.22307	703.81702	 23.70	
 17.012	-81.253	  1.04567	  0.57422	  0.40675	 -0.02594	  1.13342	 -0.05110	  1.22662	703.89001	 23.70	
 16.988	-75.483	  1.04215	  0.63204	  0.34933	 -0.01887	  1.11808	 -0.04893	  1.22315	703.72998	 23.70	
 17.001	-69.690	  1.04666	  0.69578	  0.29759	 -0.00703	  1.10571	 -0.04757	  1.22890	703.87500	 23.70	
 17.002	-63.866	  1.04459	  0.75496	  0.24556	  0.01068	  1.07799	 -0.04775	  1.22632	703.87903	 23.70	
 17.006	-58.063	  1.04298	  0.81059	  0.20152	  0.03551	  1.04257	 -0.04674	  1.22401	703.98199	 23.70	
 17.001	-52.301	  1.04325	  0.86512	  0.16005	  0.06289	  1.00531	 -0.04679	  1.22321	704.03699	 23.70	
 17.007	-46.454	  1.04431	  0.91777	  0.12268	  0.09441	  0.96447	 -0.04884	  1.22291	703.93298	 23.70	
 17.014	-40.657	  1.04501	  0.96458	  0.08874	  0.12835	  0.91792	 -0.04725	  1.22421	703.78802	 23.70	
 16.988	-34.839	  1.04567	  1.00665	  0.06126	  0.17088	  0.86595	 -0.04519	  1.22348	704.00500	 23.70	
 16.995	-29.081	  1.04793	  1.04495	  0.03858	  0.21538	  0.81419	 -0.04352	  1.22427	703.87299	 23.70	
 16.990	-23.241	  1.04493	  1.07349	  0.01585	  0.26108	  0.75321	 -0.04298	  1.21993	703.92603	 23.70	
 17.000	-17.404	  1.04572	  1.09751	 -0.00022	  0.31090	  0.69561	 -0.04232	  1.21967	703.89301	 23.70	
 17.009	-11.617	  1.04718	  1.11854	 -0.01217	  0.36416	  0.63712	 -0.04268	  1.22137	703.92102	 23.70	
 16.990	 -5.821	  1.04899	  1.13105	 -0.01902	  0.42106	  0.57796	 -0.04401	  1.22262	703.93701	 23.70	
 17.000	  0.000	  1.05115	  1.13958	 -0.02180	  0.47914	  0.52011	 -0.04238	  1.22390	703.82599	 23.70	
 16.990	  5.821	  1.05209	  1.13693	 -0.02055	  0.54058	  0.45828	 -0.04442	  1.22220	703.76099	 23.70	
 17.009	 11.617	  1.05018	  1.12884	 -0.01684	  0.59869	  0.40225	 -0.04602	  1.21992	703.94897	 23.70	
 17.000	 17.404	  1.05423	  1.11934	 -0.00685	  0.66006	  0.35012	 -0.04460	  1.22398	703.86401	 23.70	
 16.990	 23.241	  1.05031	  1.09251	  0.00901	  0.71739	  0.29768	 -0.04715	  1.21727	703.91803	 23.70	
 16.995	 29.081	  1.05526	  1.06910	  0.02865	  0.77794	  0.24974	 -0.04790	  1.22080	703.87000	 23.70	
 16.988	 34.839	  1.06360	  1.04271	  0.05375	  0.84013	  0.20788	 -0.05262	  1.22895	703.86401	 23.70	
 17.014	 40.657	  1.05675	  0.99728	  0.07973	  0.88845	  0.16366	 -0.05350	  1.21972	703.92401	 23.70	
 17.007	 46.454	  1.06476	  0.95799	  0.11463	  0.94306	  0.12891	 -0.05671	  1.22680	703.98602	 23.70	
 17.001	 52.301	  1.06283	  0.90645	  0.15088	  0.98604	  0.09564	 -0.05738	  1.22241	704.00000	 23.70	
 17.006	 58.063	  1.06352	  0.85504	  0.19369	  1.02340	  0.07058	 -0.05842	  1.22164	703.95099	 23.70	
 17.002	 63.866	  1.06513	  0.79928	  0.23889	  1.05756	  0.04791	 -0.05693	  1.22056	703.99701	 23.70	
 17.001	 69.690	  1.06597	  0.74085	  0.28869	  1.08629	  0.02952	 -0.05639	  1.22140	704.04498	 23.70	
 16.988	 75.483	  1.06541	  0.67939	  0.34164	  1.10653	  0.01505	 -0.05718	  1.21933	704.02301	 23.70	
 17.012	 81.253	  1.07064	  0.62310	  0.39834	  1.12582	  0.00653	 -0.05757	  1.22433	704.04700	 23.70	
 16.996	 87.091	  1.07219	  0.56197	  0.45806	  1.13352	  0.00359	 -0.05831	  1.22318	704.01398	 23.70	
 16.996	 92.909	  1.06989	  0.50098	  0.51524	  1.13250	  0.00077	 -0.05765	  1.22093	704.01300	 23.70	
 17.008	 98.662	  1.07225	  0.44279	  0.57631	  1.13003	  0.00280	 -0.05531	  1.22303	704.14398	 23.70	
 16.988	104.517	  1.07421	  0.38687	  0.63948	  1.11843	  0.01340	 -0.05409	  1.22340	704.14801	 23.70	
 17.001	110.310	  1.07228	  0.33089	  0.70043	  1.09804	  0.02528	 -0.05349	  1.22207	704.09900	 23.70	
 17.002	116.134	  1.07489	  0.28203	  0.76218	  1.07534	  0.04404	 -0.05194	  1.22465	704.09601	 23.70	
 17.006	121.937	  1.07547	  0.23595	  0.81904	  1.04333	  0.06617	 -0.05321	  1.22422	704.06201	 23.70	
 17.001	127.699	  1.07400	  0.19317	  0.87275	  1.00413	  0.09336	 -0.05216	  1.22393	704.01599	 23.70	
 17.007	133.546	  1.07265	  0.15123	  0.92527	  0.96246	  0.12176	 -0.05061	  1.22428	703.98297	 23.70	
 17.014	139.343	  1.07437	  0.11715	  0.97407	  0.91582	  0.15739	 -0.05057	  1.22619	704.01599	 23.70	
 16.988	145.161	  1.07011	  0.08714	  1.01199	  0.86035	  0.19742	 -0.04803	  1.22109	704.00500	 23.70	
 16.995	150.919	  1.06753	  0.05902	  1.04602	  0.80370	  0.23847	 -0.04899	  1.22014	703.89801	 23.70	
 16.990	156.759	  1.06815	  0.03433	  1.07927	  0.74741	  0.28303	 -0.04956	  1.22396	703.94299	 23.70	
 17.000	162.596	  1.06332	  0.01633	  1.10008	  0.68293	  0.33383	 -0.04978	  1.21841	704.02698	 23.70	
 17.009	168.383	  1.06445	  0.00623	  1.11909	  0.62486	  0.38928	 -0.05020	  1.22252	704.00500	 23.70	
 16.990	174.179	  1.06635	 -0.00358	  1.13234	  0.56460	  0.44626	 -0.05328	  1.22590	703.97198	 23.70	
 18.709	174.675	  1.02584	 -0.07159	  1.15978	  0.53384	  0.41405	 -0.05375	  1.22611	703.95801	 23.70	
 18.703	169.441	  1.02351	 -0.06409	  1.14679	  0.59149	  0.35814	 -0.05267	  1.22169	704.05902	 23.70	
 18.691	164.085	  1.02800	 -0.05099	  1.13386	  0.65642	  0.30486	 -0.05051	  1.22404	703.92401	 23.70	
 18.706	158.818	  1.03255	 -0.03511	  1.11631	  0.71864	  0.25624	 -0.05077	  1.22668	704.00598	 23.70	
 18.695	153.537	  1.03076	 -0.01373	  1.08439	  0.77479	  0.21027	 -0.05098	  1.22368	703.99402	 23.70	
 18.704	148.255	  1.03614	  0.01073	  1.05628	  0.83576	  0.16743	 -0.04889	  1.22891	703.94897	 23.70	
 18.698	142.952	  1.03382	  0.03801	  1.01368	  0.88715	  0.12594	 -0.04890	  1.22431	703.94702	 23.70	
 18.699	137.625	  1.02850	  0.06828	  0.96470	  0.93422	  0.08754	 -0.05047	  1.21864	703.94299	 23.70	
 18.705	132.343	  1.03396	  0.10621	  0.92034	  0.98252	  0.05895	 -0.05190	  1.22134	703.96399	 23.70	
 18.713	127.067	  1.03508	  0.14291	  0.87034	  1.02696	  0.02818	 -0.05173	  1.22375	703.90100	 23.70	
 18.700	121.794	  1.03514	  0.18862	  0.81425	  1.06238	  0.00631	 -0.05132	  1.22237	703.90601	 23.70	
 18.698	116.504	  1.03354	  0.23305	  0.75612	  1.09333	 -0.01660	 -0.05019	  1.22117	703.80902	 23.70	
 18.707	111.165	  1.03582	  0.28386	  0.69854	  1.12091	 -0.03161	 -0.05154	  1.22432	703.90399	 23.70	
 18.690	105.863	  1.03583	  0.33444	  0.63809	  1.13917	 -0.04522	 -0.05369	  1.22352	703.99701	 23.70	
 18.696	100.583	  1.03485	  0.39065	  0.57879	  1.15350	 -0.05180	 -0.05137	  1.22275	703.86499	 23.70	
 18.700	 95.309	  1.03099	  0.44606	  0.51724	  1.15642	 -0.05566	 -0.05285	  1.21781	703.90198	 23.70	
 18.700	 90.000	  1.03108	  0.50409	  0.45797	  1.15973	 -0.05856	 -0.05396	  1.22063	703.96600	 23.70	
 18.700	 84.691	  1.03289	  0.56547	  0.40047	  1.15752	 -0.05510	 -0.05398	  1.22330	703.98297	 23.70	
 18.696	 79.417	  1.02882	  0.62189	  0.34258	  1.14280	 -0.05043	 -0.05774	  1.21923	703.94397	 23.70	
 18.690	 74.137	  1.03122	  0.68387	  0.28930	  1.13081	 -0.04127	 -0.05699	  1.22389	703.88501	 23.70	
 18.707	 68.835	  1.02697	  0.74030	  0.23561	  1.10740	 -0.03105	 -0.05561	  1.22133	703.99902	 23.70	
 18.698	 63.496	  1.02681	  0.79841	  0.18806	  1.07812	 -0.01168	 -0.05340	  1.22275	703.94098	 23.70	
 18.700	 58.206	  1.02353	  0.85150	  0.14164	  1.04499	  0.00857	 -0.05580	  1.22133	703.99103	 23.70	
 18.713	 52.933	  1.02289	  0.90526	  0.10081	  1.00579	  0.03464	 -0.05518	  1.22141	704.08197	 23.70	
 18.705	 47.657	  1.01725	  0.95021	  0.06388	  0.95714	  0.06422	 -0.05373	  1.21673	703.99597	 23.70	
 18.699	 42.375	  1.01584	  0.99500	  0.03015	  0.90879	  0.09802	 -0.05415	  1.21703	703.95099	 23.70	
 18.698	 37.048	  1.01548	  1.03740	 -0.00077	  0.85755	  0.13433	 -0.05293	  1.21927	704.10901	 23.70	
 18.704	 31.745	  1.01114	  1.06899	 -0.02725	  0.79934	  0.17429	 -0.05086	  1.21568	704.09802	 23.70	
 18.695	 26.463	  1.00934	  1.09904	 -0.04849	  0.74111	  0.21978	 -0.04472	  1.21506	704.07501	 23.70	
 18.706	 21.182	  1.01240	  1.12829	 -0.06669	  0.68598	  0.26687	 -0.04418	  1.22145	704.03003	 23.70	
 18.691	 15.915	  1.01064	  1.14587	 -0.07943	  0.62490	  0.31883	 -0.04069	  1.22192	704.07501	 23.70	
 18.703	 10.559	  1.00962	  1.15809	 -0.08922	  0.56425	  0.37296	 -0.04239	  1.22269	704.02197	 23.70	
 18.709	  5.325	  1.00942	  1.16577	 -0.09425	  0.50545	  0.42840	 -0.04089	  1.22260	704.02301	 23.70	
 18.700	  0.000	  1.00134	  1.15788	 -0.09587	  0.44136	  0.48316	 -0.03869	  1.21405	704.12299	 23.70	
 18.709	 -5.325	  1.00219	  1.15360	 -0.09317	  0.38433	  0.54234	 -0.04104	  1.21662	704.09003	 23.70	
 18.703	-10.559	  1.00279	  1.14468	 -0.08666	  0.32942	  0.60209	 -0.03936	  1.21823	703.91602	 23.70	
 18.691	-15.915	  1.00473	  1.13044	 -0.07589	  0.27644	  0.66475	 -0.03808	  1.22230	704.13800	 23.70	
 18.706	-21.182	  1.00122	  1.10370	 -0.05801	  0.22886	  0.72041	 -0.03684	  1.21844	704.01099	 23.70	
 18.695	-26.463	  1.00122	  1.07534	 -0.04147	  0.18069	  0.77797	 -0.03942	  1.21876	703.96301	 23.70	
 18.704	-31.745	  0.99941	  1.03931	 -0.01866	  0.13611	  0.83257	 -0.04116	  1.21669	703.95203	 23.70	
 18.698	-37.048	  0.99966	  1.00111	  0.00728	  0.09576	  0.88633	 -0.04238	  1.21792	703.97400	 23.70	
 18.699	-42.375	  1.00056	  0.95856	  0.03861	  0.06189	  0.93566	 -0.04033	  1.21879	703.95099	 23.70	
 18.705	-47.657	  0.99885	  0.90955	  0.07016	  0.02698	  0.98139	 -0.04264	  1.21895	704.05902	 23.70	
 18.713	-52.933	  0.99935	  0.85819	  0.10820	 -0.00237	  1.02276	 -0.04235	  1.21955	704.03101	 23.70	
 18.700	-58.206	  0.99707	  0.80129	  0.15028	 -0.02552	  1.05665	 -0.04454	  1.21587	703.89600	 23.70	
 18.698	-63.496	  0.99275	  0.74149	  0.19382	 -0.04722	  1.08317	 -0.04416	  1.21147	703.96600	 23.70	
 18.707	-68.835	  0.99951	  0.68771	  0.24474	 -0.06319	  1.11668	 -0.04364	  1.22003	704.03003	 23.70	
 18.690	-74.137	  1.00071	  0.62815	  0.29594	 -0.07729	  1.13723	 -0.04304	  1.22133	703.96002	 23.70	
 18.696	-79.417	  0.99865	  0.56748	  0.34774	 -0.08850	  1.15034	 -0.04311	  1.21987	703.98297	 23.80	
 18.700	-84.691	  1.00013	  0.50808	  0.40387	 -0.09390	  1.15918	 -0.04408	  1.22005	704.03400	 23.80	
 18.700	-90.000	  1.00346	  0.45108	  0.46399	 -0.09440	  1.16448	 -0.04508	  1.22438	703.94000	 23.80	
 18.700	-95.309	  0.99972	  0.39056	  0.52211	 -0.09204	  1.15672	 -0.04919	  1.21865	703.92700	 23.70	
 18.696	-100.583	  1.00388	  0.33757	  0.58346	 -0.08495	  1.15067	 -0.05112	  1.22288	704.03900	 23.80	
 18.690	-105.863	  0.99995	  0.28440	  0.64092	 -0.07254	  1.12991	 -0.05209	  1.21574	704.05902	 23.80	
 18.707	-111.165	  1.00368	  0.23457	  0.70244	 -0.05988	  1.11377	 -0.05316	  1.22044	703.96002	 23.80	
 18.698	-116.504	  1.00303	  0.18799	  0.75863	 -0.04146	  1.08397	 -0.05486	  1.21841	704.13702	 23.80	
 18.700	-121.794	  1.00998	  0.14408	  0.82107	 -0.02045	  1.05942	 -0.05372	  1.22726	704.03400	 23.80	
 18.713	-127.067	  1.00440	  0.10579	  0.86922	  0.00771	  1.01471	 -0.05356	  1.21810	704.12299	 23.80	
 18.705	-132.343	  1.00516	  0.07148	  0.92077	  0.04056	  0.97078	 -0.05314	  1.21777	704.12598	 23.80	
 18.699	-137.625	  1.00805	  0.04059	  0.96861	  0.07711	  0.92426	 -0.05397	  1.21854	704.23102	 23.80	
 18.698	-142.952	  1.01475	  0.01423	  1.01632	  0.11650	  0.87866	 -0.05538	  1.22378	704.07300	 23.80	
 18.704	-148.255	  1.01466	 -0.01015	  1.05273	  0.15791	  0.82469	 -0.05522	  1.22434	704.05103	 23.80	
 18.695	-153.537	  1.01548	 -0.02912	  1.08478	  0.20569	  0.76666	 -0.05427	  1.22262	704.10400	 23.80	
 18.706	-158.818	  1.01012	 -0.04529	  1.10444	  0.25140	  0.70517	 -0.05347	  1.21514	703.86499	 23.80	
 18.691	-164.085	  1.01657	 -0.05594	  1.13039	  0.30591	  0.65088	 -0.05307	  1.22184	703.98798	 23.80	
 18.703	-169.441	  1.02056	 -0.06470	  1.14821	  0.36136	  0.59149	 -0.05416	  1.22315	703.89301	 23.80	
 18.709	-174.675	  1.02140	 -0.06806	  1.15714	  0.41817	  0.53302	 -0.05271	  1.22349	703.86401	 23.80	
 18.700	180.000	  1.02029	 -0.07062	  1.15818	  0.47462	  0.47285	 -0.05076	  1.22098	704.07501	 23.80	
 20.400	180.000	  0.97379	 -0.14392	  1.17813	  0.43793	  0.43311	 -0.04980	  1.21778	704.15198	 23.80	
 20.401	-175.153	  0.97189	 -0.14461	  1.17612	  0.38000	  0.48991	 -0.04890	  1.21961	703.94000	 23.80	
 20.407	-170.264	  0.97246	 -0.14170	  1.16992	  0.32301	  0.55082	 -0.04893	  1.22129	703.99402	 23.80	
 20.410	-165.423	  0.96994	 -0.13594	  1.15530	  0.26729	  0.60933	 -0.05006	  1.21985	704.06097	 23.80	
 20.392	-160.496	  0.96439	 -0.12458	  1.13217	  0.21476	  0.66540	 -0.05016	  1.21566	704.14899	 23.80	
 20.401	-155.705	  0.96354	 -0.11165	  1.10913	  0.16617	  0.72247	 -0.05149	  1.21553	704.14099	 23.80	
 20.405	-150.835	  0.96346	 -0.09576	  1.08003	  0.11778	  0.78154	 -0.05181	  1.21721	704.02301	 23.80	
 20.397	-145.903	  0.95859	 -0.07449	  1.04085	  0.07376	  0.83464	 -0.05389	  1.21236	704.13202	 23.80	
 20.392	-141.062	  0.96054	 -0.04999	  1.00489	  0.03399	  0.89010	 -0.05334	  1.21808	704.04199	 23.80	
 20.396	-136.227	  0.96385	 -0.02122	  0.96587	 -0.00040	  0.94307	 -0.05423	  1.22273	704.12402	 23.80	
 20.408	-131.372	  0.96194	  0.00922	  0.91708	 -0.03524	  0.98942	 -0.05140	  1.22257	703.98199	 23.80	
 20.410	-126.511	  0.95916	  0.04339	  0.86329	 -0.06698	  1.03032	 -0.05196	  1.22072	704.09003	 23.80	
 20.400	-121.604	  0.95604	  0.08359	  0.80639	 -0.09126	  1.06508	 -0.05000	  1.21794	704.03101	 23.80	
 20.403	-116.741	  0.95432	  0.12464	  0.74917	 -0.11339	  1.09641	 -0.05092	  1.21687	704.01599	 23.80	
 20.413	-111.900	  0.95658	  0.16903	  0.69339	 -0.13501	  1.12879	 -0.04926	  1.22227	703.93701	 23.80	
 20.398	-107.004	  0.95480	  0.21675	  0.63363	 -0.14948	  1.14945	 -0.04688	  1.22071	703.89801	 23.80	
 20.394	-102.132	  0.95082	  0.26743	  0.57066	 -0.16108	  1.16166	 -0.04540	  1.21661	704.01300	 23.80	
 20.403	-97.332	  0.94764	  0.31903	  0.50917	 -0.17094	  1.17098	 -0.04381	  1.21427	704.01898	 23.80	
 20.392	-92.440	  0.94774	  0.37584	  0.45072	 -0.17433	  1.17758	 -0.04367	  1.21556	703.96301	 23.80	
 20.392	-87.560	  0.94766	  0.43289	  0.39227	 -0.17419	  1.17803	 -0.04158	  1.21595	703.96301	 23.80	
 20.403	-82.668	  0.94619	  0.49171	  0.33229	 -0.17623	  1.17528	 -0.03852	  1.21646	704.00000	 23.80	
 20.394	-77.868	  0.94869	  0.55122	  0.27986	 -0.16884	  1.16656	 -0.03913	  1.21795	704.12903	 23.80	
 20.398	-72.996	  0.94412	  0.60985	  0.22445	 -0.15831	  1.14624	 -0.03799	  1.21237	704.06201	 23.80	
 20.413	-68.100	  0.95000	  0.67344	  0.17606	 -0.14478	  1.13164	 -0.04030	  1.21841	704.10602	 23.80	
 20.403	-63.259	  0.94944	  0.73220	  0.12986	 -0.12549	  1.10442	 -0.04081	  1.21749	703.96002	 23.80	
 20.400	-58.396	  0.94915	  0.78981	  0.08510	 -0.10451	  1.07155	 -0.03972	  1.21598	703.93201	 23.80	
 20.410	-53.489	  0.94788	  0.84414	  0.04334	 -0.08160	  1.03488	 -0.03878	  1.21631	704.05103	 23.80	
 20.408	-48.628	  0.95230	  0.90024	  0.00672	 -0.05358	  0.99920	 -0.03957	  1.22109	703.96002	 23.80	
 20.396	-43.773	  0.94854	  0.94542	 -0.02608	 -0.02170	  0.94890	 -0.03809	  1.21443	703.97400	 23.80	
 20.392	-38.938	  0.95611	  0.99811	 -0.05629	  0.01391	  0.90697	 -0.04014	  1.22264	704.01398	 23.80	
 20.397	-34.097	  0.95132	  1.03385	 -0.08378	  0.05110	  0.85086	 -0.03898	  1.21722	703.90399	 23.80	
 20.405	-29.165	  0.95185	  1.07146	 -0.10601	  0.09370	  0.79625	 -0.03703	  1.21710	704.01398	 23.80	
 20.401	-24.295	  0.95260	  1.10232	 -0.12329	  0.14022	  0.74000	 -0.03657	  1.21589	703.95801	 23.80	
 20.392	-19.504	  0.95687	  1.13243	 -0.13963	  0.18811	  0.68412	 -0.03330	  1.21926	704.07501	 23.80	
 20.410	-14.577	  0.95461	  1.15166	 -0.15323	  0.23803	  0.62383	 -0.03447	  1.21849	703.97101	 23.90	
 20.407	 -9.736	  0.95573	  1.16680	 -0.16060	  0.29265	  0.56472	 -0.03510	  1.21830	704.07300	 23.80	
 20.401	 -4.847	  0.95981	  1.18151	 -0.16597	  0.35010	  0.50778	 -0.03498	  1.22163	703.91199	 23.80	
 20.400	  0.000	  0.95750	  1.18164	 -0.16622	  0.40547	  0.44890	 -0.03440	  1.21641	703.97498	 23.80	
 20.401	  4.847	  0.95636	  1.17978	 -0.16625	  0.46256	  0.39081	 -0.03493	  1.21397	703.98901	 23.90	
 20.407	  9.736	  0.95774	  1.17333	 -0.15803	  0.52355	  0.33664	 -0.03523	  1.21382	703.95203	 23.80	
 20.410	 14.577	  0.96144	  1.16589	 -0.15073	  0.58500	  0.28414	 -0.03796	  1.21877	703.96600	 23.80	
 20.392	 19.504	  0.96121	  1.14739	 -0.13853	  0.64517	  0.23173	 -0.03682	  1.21470	703.98297	 23.80	
 20.401	 24.295	  0.96097	  1.12437	 -0.12198	  0.70238	  0.18625	 -0.04114	  1.21239	703.87000	 23.80	
 20.405	 29.165	  0.96896	  1.10572	 -0.10518	  0.76523	  0.14122	 -0.04261	  1.22135	703.95502	 23.90	
 20.397	 34.097	  0.96505	  1.06634	 -0.08104	  0.81846	  0.09891	 -0.04345	  1.21321	704.01300	 23.90	
 20.392	 38.938	  0.96656	  1.02890	 -0.05574	  0.87223	  0.05953	 -0.04434	  1.21331	703.93701	 23.90	
 20.396	 43.773	  0.97293	  0.99156	 -0.02461	  0.92615	  0.02727	 -0.04881	  1.21726	703.91302	 23.90	
 20.408	 48.628	  0.97212	  0.94571	  0.00749	  0.97205	 -0.00480	 -0.04958	  1.21573	703.87000	 23.90	
 20.410	 53.489	  0.97355	  0.89617	  0.04296	  1.01750	 -0.03497	 -0.05034	  1.21652	703.97998	 23.90	
 20.400	 58.396	  0.97882	  0.84566	  0.08540	  1.05954	 -0.05833	 -0.05256	  1.22066	703.93500	 23.90	
 20.403	 63.259	  0.97269	  0.78367	  0.12805	  1.08450	 -0.07814	 -0.05359	  1.21025	704.02802	 23.90	
 20.413	 68.100	  0.97605	  0.73088	  0.17375	  1.11519	 -0.09579	 -0.05410	  1.21395	704.12097	 23.90	
 20.398	 72.996	  0.98058	  0.67474	  0.22302	  1.14291	 -0.11086	 -0.05257	  1.21773	704.04999	 23.90	
 20.394	 77.868	  0.97965	  0.61375	  0.27727	  1.15776	 -0.11853	 -0.05037	  1.21398	703.97198	 23.90	
 20.403	 82.668	  0.98094	  0.55603	  0.33139	  1.16913	 -0.12511	 -0.05080	  1.21401	704.00500	 23.90	
 20.392	 87.560	  0.98029	  0.49626	  0.38720	  1.17454	 -0.12841	 -0.04999	  1.21211	703.97198	 23.90	
 20.392	 92.440	  0.98008	  0.43766	  0.44565	  1.17470	 -0.12900	 -0.04773	  1.21081	703.97998	 23.90	
 20.403	 97.332	  0.98031	  0.37958	  0.50487	  1.17086	 -0.12711	 -0.04604	  1.21120	704.05298	 23.90	
 20.394	102.132	  0.98014	  0.32594	  0.56359	  1.15967	 -0.11948	 -0.04372	  1.20891	704.04498	 23.90	
 20.398	107.004	  0.98809	  0.27486	  0.62845	  1.15473	 -0.11066	 -0.04458	  1.21814	703.93701	 23.90	
 20.413	111.900	  0.98701	  0.22385	  0.68731	  1.13298	 -0.09777	 -0.04288	  1.21749	703.94000	 23.90	
 20.403	116.741	  0.98956	  0.17823	  0.74716	  1.10979	 -0.08054	 -0.04494	  1.21980	703.95697	 23.90	
 20.400	121.604	  0.98645	  0.13237	  0.80207	  1.07477	 -0.06113	 -0.04629	  1.21549	704.01099	 23.90	
 20.410	126.511	  0.98610	  0.08923	  0.85680	  1.03983	 -0.03944	 -0.04674	  1.21712	703.92700	 23.90	
 20.408	131.372	  0.98808	  0.05127	  0.91101	  1.00001	 -0.01139	 -0.04807	  1.21891	703.85303	 23.90	
 20.396	136.227	  0.98647	  0.01786	  0.95831	  0.95257	  0.02112	 -0.04591	  1.21646	704.04700	 23.90	
 20.392	141.062	  0.98580	 -0.01475	  1.00368	  0.90468	  0.05315	 -0.04611	  1.21862	703.94299	 23.90	
 20.397	145.903	  0.98472	 -0.04306	  1.04404	  0.85262	  0.08921	 -0.04563	  1.21778	703.95203	 23.90	
 20.405	150.835	  0.98252	 -0.06731	  1.07914	  0.79529	  0.13155	 -0.04453	  1.21705	704.04401	 23.90	
 20.401	155.705	  0.97938	 -0.09100	  1.10820	  0.73610	  0.17321	 -0.04624	  1.21541	703.95203	 23.90	
 20.392	160.496	  0.97526	 -0.10551	  1.12790	  0.67648	  0.21966	 -0.04524	  1.21089	703.93201	 23.90	
 20.410	165.423	  0.97600	 -0.12206	  1.15059	  0.61664	  0.26991	 -0.04898	  1.21425	704.07501	 23.90	
 20.407	170.264	  0.97286	 -0.13318	  1.16296	  0.55564	  0.32088	 -0.04582	  1.21415	703.94702	 23.90	
 20.401	175.153	  0.97101	 -0.13897	  1.17013	  0.49478	  0.37578	 -0.04846	  1.21227	703.96301	 23.90	
  0.141	 45.000	  1.22797	  0.66365	  0.64638	  0.65781	  0.66167	  0.00551	  1.21648	703.98199	 23.90	
  4.001	128.691	  1.22650	  0.57153	  0.72819	  0.75209	  0.55523	  0.00318	  1.21704	704.08398	 23.90	
  4.002	 76.995	  1.22155	  0.68541	  0.60301	  0.77635	  0.52831	  0.00090	  1.21455	704.19098	 23.90	
  4.002	 25.892	  1.22163	  0.78388	  0.51384	  0.69436	  0.59796	 -0.00009	  1.21597	704.01398	 23.90	
  4.002	-25.892	  1.21951	  0.77791	  0.51366	  0.56975	  0.72027	 -0.00034	  1.21648	704.01898	 23.90	
  4.002	-76.995	  1.22307	  0.67779	  0.60534	  0.50238	  0.80243	 -0.00230	  1.21856	704.04498	 23.90	
  4.001	-128.691	  1.21766	  0.55836	  0.72613	  0.52658	  0.76792	 -0.00155	  1.21277	703.99902	 23.90	
  4.000	180.000	  1.22168	  0.51499	  0.78541	  0.63567	  0.65529	  0.00141	  1.21476	704.04401	 23.90	
  8.000	180.000	  1.19205	  0.35248	  0.90951	  0.60911	  0.62310	 -0.01260	  1.21018	704.07001	 23.90	
  7.991	-152.370	  1.19428	  0.37591	  0.87654	  0.47917	  0.76125	 -0.01349	  1.21420	704.13397	 23.90	
  7.997	-124.550	  1.19177	  0.45467	  0.77705	  0.38098	  0.87115	 -0.01721	  1.21459	704.06702	 23.90	
  8.006	-96.837	  1.18924	  0.57376	  0.64326	  0.33649	  0.92432	 -0.02084	  1.21348	704.09302	 23.90	
  7.988	-69.228	  1.18979	  0.71312	  0.50692	  0.34813	  0.90914	 -0.01877	  1.21540	703.99701	 23.90	
  7.997	-41.563	  1.18794	  0.83497	  0.40003	  0.41390	  0.82702	 -0.01750	  1.21442	704.05298	 23.90	
  8.008	-13.821	  1.19187	  0.91160	  0.34440	  0.53141	  0.70085	 -0.01554	  1.21675	704.00598	 23.90	
  8.008	 13.821	  1.19745	  0.92057	  0.34374	  0.67091	  0.56603	 -0.01652	  1.21954	703.92401	 23.90	
  7.997	 41.563	  1.20172	  0.85603	  0.40217	  0.80353	  0.45160	 -0.01673	  1.22033	704.01300	 23.90	
  7.988	 69.228	  1.20014	  0.73577	  0.50621	  0.88809	  0.38133	 -0.01517	  1.21535	704.15399	 23.90	
  8.006	 96.837	  1.20066	  0.59736	  0.64022	  0.90960	  0.36538	 -0.01464	  1.21448	704.04700	 23.90	
  7.997	124.550	  1.20367	  0.47502	  0.77704	  0.86135	  0.40695	 -0.01111	  1.21738	704.03900	 23.90	
  7.991	152.370	  1.19352	  0.38624	  0.87165	  0.74581	  0.49541	 -0.00984	  1.20857	704.07800	 23.90	
 12.009	161.059	  1.15116	  0.21111	  0.99546	  0.71156	  0.44540	 -0.02802	  1.21473	704.09302	 23.90	
 12.013	142.081	  1.15490	  0.27317	  0.92039	  0.84750	  0.33316	 -0.02754	  1.21641	704.09003	 23.90	
 12.006	123.113	  1.15308	  0.36721	  0.80368	  0.94720	  0.25292	 -0.03098	  1.21267	704.18597	 23.90	
 12.007	104.200	  1.15679	  0.49065	  0.66799	  1.01105	  0.20795	 -0.03552	  1.21718	704.15997	 23.90	
 11.989	 85.301	  1.15294	  0.62921	  0.52292	  1.01749	  0.19991	 -0.03698	  1.21405	704.14899	 23.90	
 12.013	 66.294	  1.14940	  0.76782	  0.39207	  0.97433	  0.22872	 -0.03743	  1.21250	704.03003	 23.90	
 12.012	 47.388	  1.14196	  0.88848	  0.28341	  0.88305	  0.29302	 -0.03778	  1.20949	704.03699	 23.90	
 11.990	 28.440	  1.14168	  0.97922	  0.21065	  0.76357	  0.39169	 -0.03676	  1.21201	704.05298	 23.90	
 11.991	  9.464	  1.14359	  1.02903	  0.17379	  0.62477	  0.52005	 -0.03509	  1.21871	703.97998	 23.90	
 11.991	 -9.464	  1.13722	  1.01905	  0.17413	  0.48162	  0.65701	 -0.03432	  1.21419	704.00598	 23.90	
 11.990	-28.440	  1.13728	  0.96498	  0.21176	  0.35416	  0.79731	 -0.03211	  1.21606	703.93701	 23.90	
 12.012	-47.388	  1.13420	  0.86515	  0.28790	  0.25747	  0.91245	 -0.03715	  1.21364	703.98199	 23.90	
 12.013	-66.294	  1.13376	  0.73610	  0.39587	  0.19308	  0.99514	 -0.03774	  1.21343	703.96301	 23.90	
 11.989	-85.301	  1.13600	  0.59487	  0.52847	  0.16771	  1.03101	 -0.04294	  1.21538	703.99103	 23.90	
 12.007	-104.200	  1.14024	  0.45869	  0.67289	  0.17943	  1.02025	 -0.04188	  1.21771	704.00000	 23.90	
 12.006	-123.113	  1.14230	  0.34178	  0.80938	  0.22819	  0.95806	 -0.03645	  1.21734	703.84497	 23.90	
 12.013	-142.081	  1.14310	  0.25396	  0.92289	  0.31523	  0.85208	 -0.03363	  1.21496	704.00800	 23.90	
 12.009	-161.059	  1.14565	  0.20099	  0.99810	  0.43227	  0.72026	 -0.03135	  1.21687	704.09601	 23.90	
 16.000	180.000	  1.07573	  0.03265	  1.10688	  0.51621	  0.51895	 -0.05186	  1.21489	704.04498	 23.90	
 15.990	-165.604	  1.07066	  0.03996	  1.08660	  0.38000	  0.65621	 -0.05252	  1.21336	703.98297	 23.90	
 16.002	-151.165	  1.06874	  0.07953	  1.02871	  0.26077	  0.79449	 -0.05244	  1.21204	704.05103	 23.90	
 16.002	-136.836	  1.06593	  0.14095	  0.93797	  0.16144	  0.91794	 -0.05218	  1.21315	704.06500	 23.90	
 15.995	-122.439	  1.06857	  0.23036	  0.82427	  0.08933	  1.01990	 -0.05247	  1.21867	703.91602	 23.90	
 15.993	-107.966	  1.06223	  0.33746	  0.68558	  0.03796	  1.08365	 -0.05427	  1.21386	704.03400	 23.90	
 16.005	-93.629	  1.05550	  0.46195	  0.54267	  0.01423	  1.10907	 -0.05153	  1.21005	704.01398	 23.90	
 15.992	-79.234	  1.05952	  0.60337	  0.40866	  0.01960	  1.10579	 -0.04820	  1.21488	704.16302	 23.90	
 16.009	-64.774	  1.06131	  0.74527	  0.28376	  0.04991	  1.06262	 -0.04746	  1.21791	704.09003	 23.90	
 15.997	-50.364	  1.06207	  0.87390	  0.18093	  0.10875	  0.98132	 -0.04818	  1.21571	704.03601	 23.90	
 15.997	-36.045	  1.06007	  0.98026	  0.10059	  0.19225	  0.86897	 -0.04553	  1.21282	704.03601	 23.90	
 16.000	-21.597	  1.05914	  1.05706	  0.04930	  0.29968	  0.73887	 -0.04350	  1.21057	704.06500	 23.90	
 16.003	 -7.169	  1.06423	  1.10611	  0.01931	  0.42614	  0.60155	 -0.04347	  1.21588	703.99701	 23.90	
 16.003	  7.169	  1.06663	  1.11110	  0.02025	  0.56457	  0.46568	 -0.04476	  1.21485	704.09003	 23.90	
 16.000	 21.597	  1.06615	  1.07647	  0.04426	  0.70440	  0.33718	 -0.04663	  1.21082	704.06799	 23.90	
 15.997	 36.045	  1.07139	  1.00828	  0.09673	  0.83844	  0.23061	 -0.05508	  1.21211	703.98297	 23.90	
 15.997	 50.364	  1.07564	  0.90977	  0.17311	  0.95560	  0.14432	 -0.05680	  1.21340	704.04999	 23.90	
 16.009	 64.774	  1.08031	  0.78711	  0.27515	  1.04303	  0.08467	 -0.05588	  1.21501	704.11298	 23.90	
 15.992	 79.234	  1.08544	  0.64917	  0.39914	  1.09745	  0.04965	 -0.05721	  1.21734	704.13202	 23.90	
 16.005	 93.629	  1.08870	  0.50759	  0.53705	  1.11276	  0.03918	 -0.05634	  1.21942	704.10101	 23.90	
 15.993	107.966	  1.08424	  0.37347	  0.67707	  1.08147	  0.05852	 -0.05285	  1.21208	703.92700	 23.90	
 15.995	122.439	  1.08665	  0.25850	  0.81604	  1.01833	  0.10479	 -0.04985	  1.21384	703.85699	 23.90	
 16.002	136.836	  1.08478	  0.16266	  0.93618	  0.92095	  0.17393	 -0.04656	  1.21441	703.95502	 23.90	
 16.002	151.165	  1.07926	  0.09362	  1.02582	  0.79613	  0.26841	 -0.04497	  1.21043	703.93298	 23.90	
 15.990	165.604	  1.08103	  0.05210	  1.08826	  0.65952	  0.38894	 -0.04759	  1.21585	703.87097	 23.90	
 20.003	168.362	  0.98807	 -0.10920	  1.15646	  0.58802	  0.31463	 -0.04743	  1.21644	703.92700	 23.90	
 20.008	156.764	  0.99027	 -0.07582	  1.10963	  0.72719	  0.19853	 -0.04625	  1.21529	703.93500	 23.90	
 20.000	145.147	  0.99592	 -0.02285	  1.03599	  0.86152	  0.09842	 -0.04605	  1.21900	703.85400	 23.90	
 19.995	133.545	  0.99693	  0.05150	  0.93167	  0.97606	  0.01866	 -0.04606	  1.21637	703.99597	 23.90	
 20.009	121.926	  0.99821	  0.14347	  0.80859	  1.07117	 -0.04335	 -0.04619	  1.21848	704.03900	 23.90	
 20.005	110.327	  0.99930	  0.25474	  0.67387	  1.13564	 -0.08198	 -0.04640	  1.21818	703.93298	 23.90	
 19.989	 98.733	  0.99663	  0.37661	  0.53229	  1.16800	 -0.10611	 -0.04734	  1.21646	703.90100	 23.90	
 19.999	 87.075	  0.99013	  0.50933	  0.39203	  1.16690	 -0.10901	 -0.04992	  1.21139	703.92603	 23.90	
 19.992	 75.457	  0.98832	  0.64674	  0.26515	  1.14082	 -0.09323	 -0.05149	  1.21098	703.96301	 23.90	
 20.009	 63.844	  0.98867	  0.78379	  0.15065	  1.08878	 -0.06038	 -0.04930	  1.21589	704.00598	 23.90	
 19.989	 52.269	  0.98478	  0.90703	  0.05283	  1.00366	 -0.00764	 -0.05153	  1.21469	703.95502	 23.90	
 19.999	 40.602	  0.97736	  1.01133	 -0.02623	  0.88966	  0.06543	 -0.04939	  1.21128	704.03400	 23.90	
 20.004	 29.051	  0.97333	  1.09368	 -0.08638	  0.76083	  0.15686	 -0.04363	  1.21161	703.83099	 23.90	
 20.005	 17.433	  0.96611	  1.14499	 -0.12590	  0.62094	  0.26523	 -0.03782	  1.20890	703.91602	 23.90	
 20.006	  5.780	  0.95748	  1.16163	 -0.14525	  0.47863	  0.38554	 -0.03598	  1.20242	704.15399	 23.90	
 20.006	 -5.780	  0.96450	  1.16615	 -0.14596	  0.34631	  0.52380	 -0.03705	  1.21303	704.11798	 23.90	
 20.005	-17.433	  0.95915	  1.12864	 -0.12790	  0.21854	  0.65970	 -0.03465	  1.21187	704.14099	 23.90	
 20.004	-29.051	  0.95488	  1.06096	 -0.08993	  0.10710	  0.79138	 -0.03660	  1.20663	703.95801	 23.90	
 19.999	-40.602	  0.96041	  0.97442	 -0.02897	  0.01805	  0.91809	 -0.03783	  1.21400	704.09802	 23.90	
 19.989	-52.269	  0.95658	  0.85549	  0.05265	 -0.05421	  1.01931	 -0.03708	  1.20953	703.98901	 23.90	
 20.009	-63.844	  0.95916	  0.72807	  0.15136	 -0.10649	  1.10082	 -0.03948	  1.21368	703.94897	 23.90	
 19.992	-75.457	  0.95868	  0.58793	  0.26770	 -0.13986	  1.15044	 -0.03986	  1.21318	703.87799	 23.90	
 19.999	-87.075	  0.95483	  0.44735	  0.39372	 -0.15525	  1.16695	 -0.04199	  1.20749	703.99402	 23.90	
 19.989	-98.733	  0.95528	  0.31285	  0.53225	 -0.14930	  1.15810	 -0.04507	  1.20767	704.08502	 23.90	
 20.005	-110.327	  0.96068	  0.19526	  0.67277	 -0.12361	  1.12510	 -0.04911	  1.21287	703.99402	 23.90	
 20.009	-121.926	  0.96261	  0.09090	  0.80847	 -0.07672	  1.05622	 -0.05112	  1.21320	704.03003	 23.90	
 19.995	-133.545	  0.96414	  0.00964	  0.92878	 -0.00598	  0.95877	 -0.05158	  1.20986	704.14398	 23.90	
 20.000	-145.147	  0.96491	 -0.05549	  1.02888	  0.08073	  0.84064	 -0.05284	  1.20809	704.04199	 23.90	
 20.008	-156.764	  0.96995	 -0.09955	  1.10484	  0.18616	  0.71171	 -0.05236	  1.21005	703.98297	 23.90	
 20.003	-168.362	  0.97399	 -0.12256	  1.14990	  0.30845	  0.57555	 -0.05098	  1.20940	704.10400	 23.90	
 20.000	180.000	  0.97918	 -0.13200	  1.17007	  0.44268	  0.43922	 -0.05035	  1.21462	703.98901	 23.90	
